# time[Gyr] ax ay az[(km/s)^2/kpc]
-5 -0.168958 -3.40661 -2.20686
-4.99219 -0.169009 -3.40924 -2.20498
-4.98438 -0.168842 -3.41154 -2.20443
-4.97656 -0.168816 -3.41429 -2.20328
-4.96875 -0.168212 -3.41524 -2.20473
-4.96094 -0.166927 -3.4141 -2.20925
-4.95312 -0.166676 -3.41623 -2.20924
-4.94531 -0.1672 -3.42063 -2.20565
-4.9375 -0.167897 -3.42557 -2.20131
-4.92969 -0.168159 -3.42934 -2.19911
-4.92188 -0.16819 -3.43238 -2.19793
-4.91406 -0.168212 -3.43518 -2.1966
-4.90625 -0.16824 -3.438 -2.19526
-4.89844 -0.168289 -3.44111 -2.19408
-4.89062 -0.168342 -3.44424 -2.19288
-4.88281 -0.16842 -3.44769 -2.19186
-4.875 -0.168444 -3.45017 -2.19028
-4.86719 -0.168471 -3.45264 -2.18866
-4.85938 -0.168569 -3.45623 -2.18766
-4.85156 -0.168642 -3.45932 -2.18637
-4.84375 -0.168703 -3.46216 -2.18493
-4.83594 -0.168775 -3.46509 -2.18351
-4.82812 -0.168859 -3.46816 -2.18216
-4.82031 -0.168957 -3.47139 -2.18088
-4.8125 -0.169063 -3.47469 -2.17964
-4.80469 -0.169169 -3.47792 -2.17832
-4.79688 -0.169279 -3.48114 -2.17699
-4.78906 -0.169397 -3.48442 -2.17567
-4.78125 -0.169522 -3.48774 -2.17436
-4.77344 -0.169651 -3.49105 -2.17303
-4.76562 -0.169784 -3.49437 -2.17168
-4.75781 -0.169923 -3.49771 -2.17033
-4.75 -0.170068 -3.50108 -2.16898
-4.74219 -0.170219 -3.50446 -2.16762
-4.73438 -0.170375 -3.50787 -2.16625
-4.72656 -0.170537 -3.5113 -2.16488
-4.71875 -0.170704 -3.51475 -2.1635
-4.71094 -0.170879 -3.51822 -2.16211
-4.70312 -0.171058 -3.52171 -2.16072
-4.69531 -0.171243 -3.52523 -2.15933
-4.6875 -0.171433 -3.52876 -2.15793
-4.67969 -0.17163 -3.53232 -2.15652
-4.67188 -0.171833 -3.5359 -2.15511
-4.66406 -0.172041 -3.53951 -2.15369
-4.65625 -0.172256 -3.54314 -2.15226
-4.64844 -0.172476 -3.54679 -2.15083
-4.64062 -0.172703 -3.55046 -2.14939
-4.63281 -0.172935 -3.55415 -2.14795
-4.625 -0.173174 -3.55787 -2.1465
-4.61719 -0.173418 -3.56161 -2.14504
-4.60938 -0.173669 -3.56538 -2.14357
-4.60156 -0.173925 -3.56916 -2.1421
-4.59375 -0.174188 -3.57297 -2.14063
-4.58594 -0.174457 -3.57681 -2.13914
-4.57812 -0.174732 -3.58066 -2.13765
-4.57031 -0.175013 -3.58454 -2.13615
-4.5625 -0.1753 -3.58845 -2.13465
-4.55469 -0.175593 -3.59238 -2.13313
-4.54688 -0.175893 -3.59633 -2.13162
-4.53906 -0.176199 -3.6003 -2.13009
-4.53125 -0.176511 -3.6043 -2.12856
-4.52344 -0.176829 -3.60833 -2.12702
-4.51562 -0.177154 -3.61237 -2.12547
-4.50781 -0.177485 -3.61645 -2.12391
-4.5 -0.177822 -3.62054 -2.12235
-4.49219 -0.178166 -3.62466 -2.12078
-4.48438 -0.178516 -3.62881 -2.1192
-4.47656 -0.178872 -3.63298 -2.11762
-4.46875 -0.179235 -3.63718 -2.11602
-4.46094 -0.179604 -3.6414 -2.11442
-4.45312 -0.17998 -3.64564 -2.11281
-4.44531 -0.180362 -3.64991 -2.1112
-4.4375 -0.180751 -3.65421 -2.10957
-4.42969 -0.181147 -3.65853 -2.10794
-4.42188 -0.181549 -3.66288 -2.1063
-4.41406 -0.181957 -3.66725 -2.10465
-4.40625 -0.182372 -3.67165 -2.10299
-4.39844 -0.182794 -3.67608 -2.10133
-4.39062 -0.183223 -3.68053 -2.09966
-4.38281 -0.183658 -3.685 -2.09797
-4.375 -0.1841 -3.68951 -2.09628
-4.36719 -0.184548 -3.69404 -2.09459
-4.35938 -0.185004 -3.69859 -2.09288
-4.35156 -0.185466 -3.70318 -2.09116
-4.34375 -0.185935 -3.70779 -2.08944
-4.33594 -0.18641 -3.71242 -2.08771
-4.32812 -0.186893 -3.71709 -2.08597
-4.32031 -0.187383 -3.72178 -2.08422
-4.3125 -0.187879 -3.7265 -2.08246
-4.30469 -0.188383 -3.73125 -2.08069
-4.29688 -0.188893 -3.73602 -2.07891
-4.28906 -0.18941 -3.74082 -2.07713
-4.28125 -0.189935 -3.74565 -2.07533
-4.27344 -0.190466 -3.75051 -2.07353
-4.26562 -0.191005 -3.7554 -2.07171
-4.25781 -0.191551 -3.76031 -2.06989
-4.25 -0.192103 -3.76525 -2.06806
-4.24219 -0.192663 -3.77023 -2.06622
-4.23438 -0.19323 -3.77523 -2.06437
-4.22656 -0.193805 -3.78026 -2.06251
-4.21875 -0.194386 -3.78532 -2.06064
-4.21094 -0.194975 -3.7904 -2.05876
-4.20312 -0.195571 -3.79552 -2.05687
-4.19531 -0.196175 -3.80067 -2.05497
-4.1875 -0.196785 -3.80585 -2.05306
-4.17969 -0.197404 -3.81105 -2.05114
-4.17188 -0.198029 -3.81629 -2.04921
-4.16406 -0.198662 -3.82156 -2.04728
-4.15625 -0.199303 -3.82686 -2.04533
-4.14844 -0.199951 -3.83218 -2.04337
-4.14062 -0.200606 -3.83754 -2.0414
-4.13281 -0.201269 -3.84293 -2.03942
-4.125 -0.20194 -3.84836 -2.03743
-4.11719 -0.202618 -3.85381 -2.03543
-4.10938 -0.203304 -3.85929 -2.03342
-4.10156 -0.203998 -3.86481 -2.0314
-4.09375 -0.204699 -3.87035 -2.02937
-4.08594 -0.205408 -3.87593 -2.02733
-4.07812 -0.206125 -3.88155 -2.02527
-4.07031 -0.20685 -3.88719 -2.02321
-4.0625 -0.207583 -3.89287 -2.02114
-4.05469 -0.208323 -3.89858 -2.01905
-4.04688 -0.209071 -3.90432 -2.01696
-4.03906 -0.209828 -3.91009 -2.01485
-4.03125 -0.210592 -3.9159 -2.01273
-4.02344 -0.211364 -3.92174 -2.0106
-4.01562 -0.212144 -3.92762 -2.00846
-4.00781 -0.212933 -3.93353 -2.00631
-4 -0.213729 -3.93947 -2.00415
-3.99219 -0.214534 -3.94545 -2.00198
-3.98438 -0.215347 -3.95147 -1.99979
-3.97656 -0.216168 -3.95751 -1.9976
-3.96875 -0.216997 -3.9636 -1.99539
-3.96094 -0.217835 -3.96971 -1.99317
-3.95312 -0.218681 -3.97587 -1.99094
-3.94531 -0.219535 -3.98205 -1.98869
-3.9375 -0.220398 -3.98828 -1.98644
-3.92969 -0.221269 -3.99454 -1.98417
-3.92188 -0.222149 -4.00084 -1.98189
-3.91406 -0.223037 -4.00717 -1.9796
-3.90625 -0.223933 -4.01354 -1.9773
-3.89844 -0.224839 -4.01994 -1.97498
-3.89062 -0.225753 -4.02639 -1.97266
-3.88281 -0.226675 -4.03287 -1.97032
-3.875 -0.227607 -4.03939 -1.96797
-3.86719 -0.228547 -4.04594 -1.9656
-3.85938 -0.229495 -4.05254 -1.96322
-3.85156 -0.230453 -4.05917 -1.96084
-3.84375 -0.23142 -4.06584 -1.95843
-3.83594 -0.232395 -4.07255 -1.95602
-3.82812 -0.23338 -4.0793 -1.95359
-3.82031 -0.234373 -4.08609 -1.95115
-3.8125 -0.235375 -4.09292 -1.9487
-3.80469 -0.236387 -4.09979 -1.94623
-3.79688 -0.237408 -4.10669 -1.94375
-3.78906 -0.238438 -4.11364 -1.94126
-3.78125 -0.239477 -4.12063 -1.93875
-3.77344 -0.240525 -4.12766 -1.93624
-3.76562 -0.241583 -4.13473 -1.9337
-3.75781 -0.24265 -4.14184 -1.93116
-3.75 -0.243726 -4.149 -1.9286
-3.74219 -0.244812 -4.15619 -1.92603
-3.73438 -0.245907 -4.16343 -1.92344
-3.72656 -0.247012 -4.17071 -1.92084
-3.71875 -0.248126 -4.17803 -1.91823
-3.71094 -0.24925 -4.1854 -1.9156
-3.70312 -0.250384 -4.19281 -1.91296
-3.69531 -0.251528 -4.20026 -1.9103
-3.6875 -0.252681 -4.20776 -1.90763
-3.67969 -0.253844 -4.2153 -1.90495
-3.67188 -0.255017 -4.22289 -1.90225
-3.66406 -0.2562 -4.23052 -1.89953
-3.65625 -0.257393 -4.2382 -1.89681
-3.64844 -0.258596 -4.24592 -1.89406
-3.64062 -0.259809 -4.25369 -1.89131
-3.63281 -0.261032 -4.2615 -1.88854
-3.625 -0.262265 -4.26936 -1.88575
-3.61719 -0.263509 -4.27727 -1.88295
-3.60938 -0.264763 -4.28522 -1.88013
-3.60156 -0.266027 -4.29322 -1.8773
-3.59375 -0.267302 -4.30127 -1.87446
-3.58594 -0.268587 -4.30937 -1.87159
-3.57812 -0.269882 -4.31751 -1.86872
-3.57031 -0.271189 -4.32571 -1.86582
-3.5625 -0.272505 -4.33395 -1.86292
-3.55469 -0.273833 -4.34225 -1.85999
-3.54688 -0.275171 -4.35059 -1.85705
-3.53906 -0.276521 -4.35898 -1.8541
-3.53125 -0.277881 -4.36743 -1.85113
-3.52344 -0.279251 -4.37592 -1.84814
-3.51562 -0.280633 -4.38447 -1.84514
-3.50781 -0.282026 -4.39306 -1.84212
-3.5 -0.283431 -4.40171 -1.83908
-3.49219 -0.284846 -4.41042 -1.83603
-3.48438 -0.286272 -4.41917 -1.83296
-3.47656 -0.28771 -4.42798 -1.82988
-3.46875 -0.28916 -4.43684 -1.82677
-3.46094 -0.29062 -4.44576 -1.82365
-3.45312 -0.292093 -4.45473 -1.82052
-3.44531 -0.293576 -4.46375 -1.81737
-3.4375 -0.295072 -4.47283 -1.8142
-3.42969 -0.296579 -4.48197 -1.81101
-3.42188 -0.298098 -4.49116 -1.8078
-3.41406 -0.299629 -4.50041 -1.80458
-3.40625 -0.301171 -4.50972 -1.80134
-3.39844 -0.302726 -4.51908 -1.79808
-3.39062 -0.304293 -4.5285 -1.79481
-3.38281 -0.305872 -4.53798 -1.79151
-3.375 -0.307463 -4.54752 -1.7882
-3.36719 -0.309066 -4.55711 -1.78487
-3.35938 -0.310682 -4.56677 -1.78153
-3.35156 -0.312311 -4.57649 -1.77816
-3.34375 -0.313951 -4.58626 -1.77477
-3.33594 -0.315605 -4.5961 -1.77137
-3.32812 -0.317271 -4.606 -1.76795
-3.32031 -0.31895 -4.61596 -1.76451
-3.3125 -0.320641 -4.62598 -1.76104
-3.30469 -0.322346 -4.63607 -1.75756
-3.29688 -0.324063 -4.64622 -1.75406
-3.28906 -0.325794 -4.65644 -1.75055
-3.28125 -0.327538 -4.66671 -1.74701
-3.27344 -0.329295 -4.67706 -1.74345
-3.26562 -0.331066 -4.68747 -1.73987
-3.25781 -0.332849 -4.69794 -1.73627
-3.25 -0.334647 -4.70848 -1.73265
-3.24219 -0.336458 -4.71909 -1.72901
-3.23438 -0.338283 -4.72977 -1.72536
-3.22656 -0.340121 -4.74051 -1.72168
-3.21875 -0.341973 -4.75133 -1.71797
-3.21094 -0.34384 -4.76221 -1.71425
-3.20312 -0.34572 -4.77316 -1.71051
-3.19531 -0.347615 -4.78418 -1.70674
-3.1875 -0.349524 -4.79528 -1.70296
-3.17969 -0.351447 -4.80644 -1.69915
-3.17188 -0.353385 -4.81768 -1.69532
-3.16406 -0.355337 -4.82899 -1.69147
-3.15625 -0.357304 -4.84038 -1.6876
-3.14844 -0.359285 -4.85183 -1.6837
-3.14062 -0.361282 -4.86337 -1.67978
-3.13281 -0.363293 -4.87498 -1.67584
-3.125 -0.36532 -4.88666 -1.67188
-3.11719 -0.367362 -4.89842 -1.66789
-3.10938 -0.369419 -4.91026 -1.66388
-3.10156 -0.371491 -4.92217 -1.65985
-3.09375 -0.373579 -4.93417 -1.65579
-3.08594 -0.375683 -4.94624 -1.65171
-3.07812 -0.377802 -4.9584 -1.64761
-3.07031 -0.379937 -4.97063 -1.64348
-3.0625 -0.382089 -4.98294 -1.63933
-3.05469 -0.384256 -4.99534 -1.63515
-3.04688 -0.386439 -5.00782 -1.63095
-3.03906 -0.388639 -5.02039 -1.62672
-3.03125 -0.390855 -5.03303 -1.62247
-3.02344 -0.393088 -5.04577 -1.61819
-3.01562 -0.395338 -5.05859 -1.61389
-3.00781 -0.397604 -5.07149 -1.60956
-3 -0.399888 -5.08448 -1.6052
-2.99219 -0.402188 -5.09756 -1.60082
-2.98438 -0.404506 -5.11073 -1.59642
-2.97656 -0.406841 -5.12399 -1.59198
-2.96875 -0.409193 -5.13734 -1.58752
-2.96094 -0.411563 -5.15078 -1.58303
-2.95312 -0.413951 -5.16431 -1.57851
-2.94531 -0.416357 -5.17794 -1.57397
-2.9375 -0.418781 -5.19165 -1.5694
-2.92969 -0.421223 -5.20547 -1.5648
-2.92188 -0.423683 -5.21938 -1.56017
-2.91406 -0.426162 -5.23338 -1.55551
-2.90625 -0.42866 -5.24748 -1.55082
-2.89844 -0.431176 -5.26168 -1.54611
-2.89062 -0.433711 -5.27598 -1.54136
-2.88281 -0.436266 -5.29038 -1.53659
-2.875 -0.438839 -5.30488 -1.53178
-2.86719 -0.441432 -5.31948 -1.52695
-2.85938 -0.444045 -5.33419 -1.52208
-2.85156 -0.446677 -5.349 -1.51718
-2.84375 -0.449329 -5.36391 -1.51225
-2.83594 -0.452002 -5.37893 -1.50729
-2.82812 -0.454694 -5.39405 -1.5023
-2.82031 -0.457407 -5.40929 -1.49728
-2.8125 -0.460141 -5.42463 -1.49222
-2.80469 -0.462895 -5.44008 -1.48713
-2.79688 -0.46567 -5.45564 -1.48201
-2.78906 -0.468467 -5.47132 -1.47685
-2.78125 -0.471284 -5.4871 -1.47166
-2.77344 -0.474124 -5.50301 -1.46643
-2.76562 -0.476985 -5.51902 -1.46117
-2.75781 -0.479867 -5.53515 -1.45588
-2.75 -0.482772 -5.55141 -1.45055
-2.74219 -0.485699 -5.56777 -1.44518
-2.73438 -0.488649 -5.58426 -1.43978
-2.72656 -0.491621 -5.60087 -1.43434
-2.71875 -0.494617 -5.6176 -1.42886
-2.71094 -0.497635 -5.63446 -1.42335
-2.70312 -0.500677 -5.65144 -1.4178
-2.69531 -0.503742 -5.66855 -1.41221
-2.6875 -0.506831 -5.68578 -1.40658
-2.67969 -0.509943 -5.70314 -1.40092
-2.67188 -0.51308 -5.72063 -1.39521
-2.66406 -0.516242 -5.73825 -1.38947
-2.65625 -0.519428 -5.75601 -1.38368
-2.64844 -0.522639 -5.7739 -1.37785
-2.64062 -0.525875 -5.79192 -1.37199
-2.63281 -0.529136 -5.81008 -1.36608
-2.625 -0.532423 -5.82838 -1.36013
-2.61719 -0.535736 -5.84681 -1.35413
-2.60938 -0.539075 -5.86539 -1.34809
-2.60156 -0.54244 -5.88411 -1.34201
-2.59375 -0.545832 -5.90297 -1.33589
-2.58594 -0.54925 -5.92198 -1.32972
-2.57812 -0.552696 -5.94114 -1.3235
-2.57031 -0.556169 -5.96044 -1.31724
-2.5625 -0.55967 -5.9799 -1.31093
-2.55469 -0.563199 -5.9995 -1.30458
-2.54688 -0.566756 -6.01926 -1.29818
-2.53906 -0.570341 -6.03917 -1.29173
-2.53125 -0.573955 -6.05924 -1.28523
-2.52344 -0.577599 -6.07947 -1.27868
-2.51562 -0.581272 -6.09986 -1.27208
-2.50781 -0.584974 -6.1204 -1.26543
-2.5 -0.588706 -6.14112 -1.25873
-2.49219 -0.592469 -6.16199 -1.25198
-2.48438 -0.596263 -6.18303 -1.24518
-2.47656 -0.600087 -6.20425 -1.23832
-2.46875 -0.603943 -6.22563 -1.23141
-2.46094 -0.60783 -6.24718 -1.22444
-2.45312 -0.611749 -6.26891 -1.21742
-2.44531 -0.6157 -6.29082 -1.21035
-2.4375 -0.619684 -6.3129 -1.20321
-2.42969 -0.623701 -6.33516 -1.19602
-2.42188 -0.627752 -6.35761 -1.18877
-2.41406 -0.631836 -6.38024 -1.18147
-2.40625 -0.635954 -6.40305 -1.1741
-2.39844 -0.640107 -6.42606 -1.16667
-2.39062 -0.644294 -6.44925 -1.15918
-2.38281 -0.648517 -6.47264 -1.15163
-2.375 -0.652775 -6.49622 -1.14401
-2.36719 -0.657069 -6.52 -1.13633
-2.35938 -0.6614 -6.54398 -1.12859
-2.35156 -0.665767 -6.56816 -1.12077
-2.34375 -0.670172 -6.59255 -1.1129
-2.33594 -0.674614 -6.61714 -1.10495
-2.32812 -0.679095 -6.64194 -1.09694
-2.32031 -0.683614 -6.66695 -1.08885
-2.3125 -0.688171 -6.69217 -1.0807
-2.30469 -0.692769 -6.71761 -1.07247
-2.29688 -0.697406 -6.74327 -1.06417
-2.28906 -0.702084 -6.76915 -1.0558
-2.28125 -0.706802 -6.79526 -1.04735
-2.27344 -0.711562 -6.82159 -1.03883
-2.26562 -0.716364 -6.84815 -1.03023
-2.25781 -0.721208 -6.87495 -1.02155
-2.25 -0.726094 -6.90198 -1.01279
-2.24219 -0.731024 -6.92924 -1.00395
-2.23438 -0.735998 -6.95675 -0.99503
-2.22656 -0.741017 -6.9845 -0.986025
-2.21875 -0.74608 -7.0125 -0.976935
-2.21094 -0.751189 -7.04075 -0.96776
-2.20312 -0.756344 -7.06925 -0.958498
-2.19531 -0.761545 -7.09801 -0.949147
-2.1875 -0.766794 -7.12702 -0.939706
-2.17969 -0.77209 -7.1563 -0.930174
-2.17188 -0.777435 -7.18585 -0.920549
-2.16406 -0.782829 -7.21566 -0.91083
-2.15625 -0.788273 -7.24574 -0.901015
-2.14844 -0.793767 -7.2761 -0.891103
-2.14062 -0.799311 -7.30675 -0.881092
-2.13281 -0.804908 -7.33767 -0.870981
-2.125 -0.810556 -7.36888 -0.860767
-2.11719 -0.816258 -7.40038 -0.85045
-2.10938 -0.822013 -7.43217 -0.840027
-2.10156 -0.827823 -7.46427 -0.829496
-2.09375 -0.833687 -7.49666 -0.818857
-2.08594 -0.839608 -7.52936 -0.808107
-2.07812 -0.845584 -7.56237 -0.797244
-2.07031 -0.851619 -7.59569 -0.786266
-2.0625 -0.857711 -7.62933 -0.775172
-2.05469 -0.863862 -7.66329 -0.763959
-2.04688 -0.870072 -7.69758 -0.752625
-2.03906 -0.876344 -7.7322 -0.741169
-2.03125 -0.882676 -7.76715 -0.729588
-2.02344 -0.889071 -7.80244 -0.71788
-2.01562 -0.895528 -7.83808 -0.706042
-2.00781 -0.90205 -7.87407 -0.694073
-2 -0.908636 -7.91041 -0.68197
-1.99219 -0.915288 -7.9471 -0.66973
-1.98438 -0.922006 -7.98417 -0.657352
-1.97656 -0.928792 -8.02159 -0.644833
-1.96875 -0.935646 -8.0594 -0.63217
-1.96094 -0.94257 -8.09758 -0.61936
-1.95312 -0.949565 -8.13614 -0.606402
-1.94531 -0.956631 -8.17509 -0.593291
-1.9375 -0.96377 -8.21444 -0.580026
-1.92969 -0.970982 -8.25419 -0.566604
-1.92188 -0.978269 -8.29434 -0.553021
-1.91406 -0.985631 -8.3349 -0.539275
-1.90625 -0.993071 -8.37589 -0.525362
-1.89844 -1.00059 -8.41729 -0.51128
-1.89062 -1.00819 -8.45912 -0.497024
-1.88281 -1.01586 -8.50139 -0.482593
-1.875 -1.02362 -8.5441 -0.467982
-1.86719 -1.03146 -8.58726 -0.453188
-1.85938 -1.03939 -8.63087 -0.438208
-1.85156 -1.0474 -8.67495 -0.423038
-1.84375 -1.0555 -8.71949 -0.407673
-1.83594 -1.06369 -8.76451 -0.392111
-1.82812 -1.07196 -8.81 -0.376348
-1.82031 -1.08033 -8.85599 -0.360378
-1.8125 -1.08879 -8.90247 -0.3442
-1.80469 -1.09734 -8.94946 -0.327807
-1.79688 -1.10599 -8.99696 -0.311196
-1.78906 -1.11473 -9.04498 -0.294362
-1.78125 -1.12358 -9.09352 -0.277302
-1.77344 -1.13252 -9.1426 -0.260009
-1.76562 -1.14156 -9.19222 -0.24248
-1.75781 -1.15071 -9.24239 -0.22471
-1.75 -1.15996 -9.29313 -0.206693
-1.74219 -1.16932 -9.34443 -0.188424
-1.73438 -1.17879 -9.3963 -0.169899
-1.72656 -1.18837 -9.44877 -0.151112
-1.71875 -1.19806 -9.50183 -0.132057
-1.71094 -1.20786 -9.55549 -0.112728
-1.70312 -1.21778 -9.60977 -0.0931198
-1.69531 -1.22782 -9.66467 -0.0732265
-1.6875 -1.23797 -9.72021 -0.0530418
-1.67969 -1.24825 -9.77639 -0.0325592
-1.67188 -1.25866 -9.83322 -0.0117722
-1.66406 -1.26918 -9.89072 0.00932549
-1.65625 -1.27984 -9.94889 0.0307409
-1.64844 -1.29063 -10.0078 0.0524813
-1.64062 -1.30155 -10.0673 0.0745538
-1.63281 -1.3126 -10.1276 0.0969655
-1.625 -1.3238 -10.1886 0.119724
-1.61719 -1.33513 -10.2503 0.142838
-1.60938 -1.3466 -10.3127 0.166315
-1.60156 -1.35822 -10.376 0.190163
-1.59375 -1.36999 -10.44 0.21439
-1.58594 -1.38191 -10.5047 0.239006
-1.57812 -1.39398 -10.5703 0.26402
-1.57031 -1.40621 -10.6367 0.289439
-1.5625 -1.41859 -10.7039 0.315276
-1.55469 -1.43114 -10.7719 0.341538
-1.54688 -1.44386 -10.8408 0.368236
-1.53906 -1.45674 -10.9106 0.39538
-1.53125 -1.46979 -10.9812 0.422981
-1.52344 -1.48301 -11.0527 0.451051
-1.51562 -1.49642 -11.1252 0.4796
-1.50781 -1.51 -11.1985 0.508639
-1.5 -1.52377 -11.2728 0.53818
-1.49219 -1.53772 -11.3481 0.568238
-1.48438 -1.55187 -11.4244 0.598823
-1.47656 -1.56622 -11.5016 0.629948
-1.46875 -1.58076 -11.5799 0.661627
-1.46094 -1.5955 -11.6592 0.693875
-1.45312 -1.61046 -11.7395 0.726705
-1.44531 -1.62562 -11.8209 0.760132
-1.4375 -1.641 -11.9034 0.79417
-1.42969 -1.6566 -11.987 0.828837
-1.42188 -1.67243 -12.0717 0.864148
-1.41406 -1.68848 -12.1576 0.900119
-1.40625 -1.70477 -12.2447 0.936766
-1.39844 -1.7213 -12.3329 0.97411
-1.39062 -1.73807 -12.4224 1.01217
-1.38281 -1.75508 -12.5131 1.05096
-1.375 -1.77236 -12.605 1.0905
-1.36719 -1.78989 -12.6983 1.13081
-1.35938 -1.80768 -12.7928 1.17191
-1.35156 -1.82575 -12.8887 1.21383
-1.34375 -1.84409 -12.9859 1.25658
-1.33594 -1.86272 -13.0845 1.3002
-1.32812 -1.88163 -13.1845 1.34469
-1.32031 -1.90084 -13.286 1.39009
-1.3125 -1.92034 -13.3889 1.43641
-1.30469 -1.94016 -13.4934 1.4837
-1.29688 -1.96029 -13.5993 1.53198
-1.28906 -1.98074 -13.7068 1.58125
-1.28125 -2.00152 -13.8159 1.63157
-1.27344 -2.02263 -13.9266 1.68296
-1.26562 -2.04409 -14.039 1.73546
-1.25781 -2.0659 -14.153 1.78907
-1.25 -2.08807 -14.2687 1.84385
-1.24219 -2.1106 -14.3862 1.89983
-1.23438 -2.13352 -14.5055 1.95705
-1.22656 -2.15681 -14.6266 2.01553
-1.21875 -2.18049 -14.7495 2.07531
-1.21094 -2.20458 -14.8743 2.13645
-1.20312 -2.22909 -15.0011 2.19897
-1.19531 -2.25401 -15.1298 2.26291
-1.1875 -2.27936 -15.2606 2.32832
-1.17969 -2.30516 -15.3933 2.39525
-1.17188 -2.33141 -15.5282 2.46375
-1.16406 -2.35812 -15.6652 2.53384
-1.15625 -2.3853 -15.8044 2.60557
-1.14844 -2.41298 -15.9458 2.67903
-1.14062 -2.44115 -16.0895 2.75425
-1.13281 -2.46982 -16.2355 2.83129
-1.125 -2.49903 -16.3839 2.91021
-1.11719 -2.52876 -16.5347 2.99106
-1.10938 -2.55905 -16.688 3.0739
-1.10156 -2.5899 -16.8437 3.15881
-1.09375 -2.62133 -17.0021 3.24585
-1.08594 -2.65335 -17.1631 3.33508
-1.07812 -2.68597 -17.3267 3.42657
-1.07031 -2.71922 -17.4931 3.52042
-1.0625 -2.7531 -17.6623 3.61668
-1.05469 -2.78765 -17.8344 3.71544
-1.04688 -2.82286 -18.0094 3.81679
-1.03906 -2.85876 -18.1873 3.92081
-1.03125 -2.89537 -18.3683 4.02759
-1.02344 -2.93271 -18.5525 4.13722
-1.01562 -2.97079 -18.7398 4.24982
-1.00781 -3.09452 -18.9577 4.35505
-1 -3.21924 -19.1654 4.45605
-0.992188 -3.26476 -19.3535 4.57693
-0.984375 -3.31413 -19.5536 4.71292
-0.976562 -3.36258 -19.7449 4.85228
-0.96875 -3.41186 -19.9348 4.9994
-0.960938 -3.46208 -20.1239 5.15463
-0.953125 -3.51313 -20.3116 5.31768
-0.945312 -3.56537 -20.4992 5.48972
-0.9375 -3.61885 -20.6867 5.67093
-0.929688 -3.67325 -20.8731 5.86033
-0.921875 -3.7287 -21.0588 6.05838
-0.914062 -3.78529 -21.244 6.26538
-0.90625 -3.84307 -21.4289 6.48155
-0.898438 -3.9021 -21.6135 6.70719
-0.890625 -3.96248 -21.7982 6.94266
-0.882812 -4.02413 -21.9826 7.18765
-0.875 -4.0869 -22.1666 7.44148
-0.867188 -4.15103 -22.3506 7.7053
-0.859375 -4.21681 -22.5352 7.98023
-0.851562 -4.28431 -22.7207 8.26654
-0.84375 -4.35338 -22.9067 8.56374
-0.835938 -4.42398 -23.093 8.87164
-0.828125 -4.49625 -23.28 9.19078
-0.820312 -4.57031 -23.4678 9.52178
-0.8125 -4.6462 -23.6566 9.86481
-0.804688 -4.72392 -23.8464 10.2198
-0.796875 -4.80362 -24.0374 10.5876
-0.789062 -4.88539 -24.2297 10.9685
-0.78125 -4.9692 -24.4235 11.3624
-0.773438 -5.05523 -24.6187 11.7702
-0.765625 -5.14355 -24.8157 12.1924
-0.757812 -5.23415 -25.0144 12.6285
-0.75 -5.3272 -25.215 13.0798
-0.742188 -5.42283 -25.4177 13.5469
-0.734375 -5.52101 -25.6225 14.0294
-0.726562 -5.62185 -25.8295 14.5281
-0.71875 -5.72552 -26.0389 15.0438
-0.710938 -5.83215 -26.2508 15.5772
-0.703125 -5.94187 -26.4653 16.129
-0.695312 -6.05472 -26.6825 16.6995
-0.6875 -6.17078 -26.9023 17.2892
-0.679688 -6.29023 -27.1251 17.899
-0.671875 -6.41319 -27.3508 18.5295
-0.664062 -6.53979 -27.5793 19.1816
-0.65625 -6.67013 -27.811 19.856
-0.648438 -6.80435 -28.0458 20.5533
-0.640625 -6.94264 -28.2837 21.2747
-0.632812 -7.08514 -28.5246 22.0213
-0.625 -7.23196 -28.7687 22.7936
-0.617188 -7.38328 -29.0159 23.5927
-0.609375 -7.53929 -29.2659 24.4202
-0.601562 -7.70016 -29.519 25.2769
-0.59375 -7.86606 -29.7753 26.1637
-0.585938 -8.03717 -30.0341 27.0823
-0.578125 -8.21366 -30.2951 28.0343
-0.570312 -8.39573 -30.5588 29.0202
-0.5625 -8.58356 -30.8245 30.042
-0.554688 -8.77736 -31.0914 31.1017
-0.546875 -8.97735 -31.3598 32.2003
-0.539062 -9.18375 -31.6297 33.3393
-0.53125 -9.39673 -31.8997 34.521
-0.523438 -9.61652 -32.1689 35.7476
-0.515625 -9.84336 -32.4373 37.0209
-0.507812 -10.1133 -32.7379 38.3374
-0.5 -10.3964 -33.0452 39.689
-0.492188 -10.6561 -33.3252 41.061
-0.484375 -10.9216 -33.603 42.4448
-0.476562 -11.194 -33.8781 43.8461
-0.46875 -11.4734 -34.149 45.2675
-0.460938 -11.76 -34.414 46.7107
-0.453125 -12.0541 -34.671 48.1795
-0.445312 -12.356 -34.9189 49.6758
-0.4375 -12.6658 -35.155 51.2035
-0.429688 -12.9841 -35.3755 52.7681
-0.421875 -13.311 -35.5783 54.3716
-0.414062 -13.6465 -35.7602 56.0176
-0.40625 -13.991 -35.9173 57.7103
-0.398438 -14.3445 -36.0454 59.4536
-0.390625 -14.7071 -36.1399 61.2517
-0.382812 -15.0788 -36.1951 63.1088
-0.375 -15.4597 -36.2057 65.0291
-0.367188 -15.8495 -36.1654 67.0167
-0.359375 -16.248 -36.066 69.0763
-0.351562 -16.6548 -35.8993 71.2117
-0.34375 -17.0694 -35.6568 73.4271
-0.335938 -17.491 -35.3286 75.726
-0.328125 -17.9189 -34.9037 78.112
-0.320312 -18.3519 -34.3701 80.5881
-0.3125 -18.7886 -33.7142 83.1564
-0.304688 -19.2274 -32.9217 85.8188
-0.296875 -19.6662 -31.9766 88.5757
-0.289062 -20.1026 -30.8617 91.4269
-0.28125 -20.5337 -29.5585 94.3701
-0.273438 -20.9564 -28.0469 97.4022
-0.265625 -21.3665 -26.3048 100.517
-0.257812 -21.759 -24.3271 103.788
-0.25 -22.1403 -22.1363 107.122
-0.242188 -22.5032 -19.7333 110.453
-0.234375 -22.8284 -17.0891 113.875
-0.226562 -23.1093 -14.1779 117.37
-0.21875 -23.339 -10.9759 120.916
-0.210938 -23.5089 -7.45647 124.483
-0.203125 -23.61 -3.59478 128.038
-0.195312 -23.633 0.629316 131.542
-0.1875 -23.5678 5.2349 134.951
-0.179688 -23.4036 10.2363 138.215
-0.171875 -23.1297 15.6422 141.277
-0.164062 -22.7353 21.4541 144.076
-0.15625 -22.2098 27.6651 146.546
-0.148438 -21.5436 34.2584 148.62
-0.140625 -20.728 41.2059 150.226
-0.132812 -19.7561 48.4676 151.294
-0.125 -18.6231 55.9903 151.757
-0.117188 -17.3267 63.7083 151.555
-0.109375 -15.8679 71.5435 150.632
-0.101562 -14.2507 79.4069 148.947
-0.09375 -12.4828 87.2005 146.471
-0.0859375 -10.5756 94.8201 143.192
-0.078125 -8.54361 102.159 139.115
-0.0703125 -6.40457 109.111 134.263
-0.0625 -4.17882 115.575 128.678
-0.0546875 -1.88842 121.458 122.42
-0.046875 0.443659 126.681 115.56
-0.0390625 2.79416 131.178 108.185
-0.03125 5.14048 134.898 100.387
-0.0234375 7.46144 137.81 92.2677
-0.015625 9.73749 139.902 83.9284
-0.0078125 11.6527 141.56 75.7222
0 13.5082 142.461 67.4794
