# time[~Gyr] ax ay az[(km/s)^2/kpc]
-5 -0.0783564 -1.21699 -0.476095
-4.99219 -0.0786387 -1.21753 -0.475462
-4.98438 -0.078927 -1.21823 -0.474904
-4.97656 -0.0791261 -1.21881 -0.474741
-4.96875 -0.0791348 -1.21919 -0.475445
-4.96094 -0.0791089 -1.21955 -0.476325
-4.95312 -0.0793655 -1.22026 -0.475921
-4.94531 -0.0798406 -1.22117 -0.474481
-4.9375 -0.0803071 -1.2221 -0.473099
-4.92969 -0.0806281 -1.22294 -0.472428
-4.92188 -0.0809073 -1.2237 -0.471918
-4.91406 -0.0811801 -1.22437 -0.471372
-4.90625 -0.0814552 -1.22508 -0.470839
-4.89844 -0.0817366 -1.2259 -0.470342
-4.89062 -0.0820152 -1.22668 -0.469833
-4.88281 -0.0822984 -1.22754 -0.469348
-4.875 -0.0825642 -1.22816 -0.46877
-4.86719 -0.082831 -1.2288 -0.468196
-4.85938 -0.083117 -1.22972 -0.467728
-4.85156 -0.0833902 -1.23048 -0.467194
-4.84375 -0.0836588 -1.23117 -0.466635
-4.83594 -0.0839301 -1.23191 -0.466089
-4.82812 -0.084204 -1.23269 -0.465558
-4.82031 -0.0844814 -1.23354 -0.465049
-4.8125 -0.0847589 -1.2344 -0.464541
-4.80469 -0.0850338 -1.23522 -0.464016
-4.79688 -0.0853085 -1.23605 -0.463491
-4.78906 -0.0855841 -1.23691 -0.462973
-4.78125 -0.0858598 -1.23777 -0.462454
-4.77344 -0.0861348 -1.23863 -0.461931
-4.76562 -0.0864095 -1.23949 -0.461406
-4.75781 -0.086684 -1.24036 -0.460882
-4.75 -0.0869584 -1.24124 -0.460357
-4.74219 -0.087233 -1.24212 -0.459831
-4.73438 -0.0875075 -1.24301 -0.459304
-4.72656 -0.0877816 -1.24391 -0.458778
-4.71875 -0.088056 -1.24481 -0.458251
-4.71094 -0.0883306 -1.24572 -0.457723
-4.70312 -0.0886049 -1.24664 -0.457194
-4.69531 -0.088879 -1.24756 -0.456666
-4.6875 -0.0891531 -1.24849 -0.456137
-4.67969 -0.0894274 -1.24943 -0.455608
-4.67188 -0.0897016 -1.25038 -0.455077
-4.66406 -0.089976 -1.25133 -0.454545
-4.65625 -0.0902504 -1.25229 -0.454013
-4.64844 -0.0905247 -1.25325 -0.45348
-4.64062 -0.0907991 -1.25423 -0.452947
-4.63281 -0.0910736 -1.25521 -0.452412
-4.625 -0.0913483 -1.2562 -0.451877
-4.61719 -0.0916229 -1.25719 -0.45134
-4.60938 -0.0918975 -1.2582 -0.450804
-4.60156 -0.0921723 -1.25921 -0.450266
-4.59375 -0.0924471 -1.26022 -0.449727
-4.58594 -0.092722 -1.26125 -0.449187
-4.57812 -0.092997 -1.26228 -0.448647
-4.57031 -0.0932721 -1.26332 -0.448105
-4.5625 -0.0935474 -1.26436 -0.447563
-4.55469 -0.0938227 -1.26542 -0.447019
-4.54688 -0.0940982 -1.26648 -0.446475
-4.53906 -0.0943738 -1.26755 -0.445929
-4.53125 -0.0946495 -1.26862 -0.445382
-4.52344 -0.0949254 -1.2697 -0.444835
-4.51562 -0.0952015 -1.27079 -0.444286
-4.50781 -0.0954777 -1.27189 -0.443736
-4.5 -0.0957541 -1.273 -0.443184
-4.49219 -0.0960306 -1.27411 -0.442632
-4.48438 -0.0963074 -1.27523 -0.442078
-4.47656 -0.0965843 -1.27636 -0.441524
-4.46875 -0.0968615 -1.2775 -0.440967
-4.46094 -0.0971389 -1.27864 -0.44041
-4.45312 -0.0974165 -1.27979 -0.439851
-4.44531 -0.0976943 -1.28095 -0.439291
-4.4375 -0.0979723 -1.28212 -0.43873
-4.42969 -0.0982506 -1.28329 -0.438167
-4.42188 -0.0985292 -1.28447 -0.437603
-4.41406 -0.098808 -1.28566 -0.437037
-4.40625 -0.0990871 -1.28686 -0.43647
-4.39844 -0.0993664 -1.28807 -0.435902
-4.39062 -0.0996461 -1.28928 -0.435332
-4.38281 -0.099926 -1.2905 -0.434761
-4.375 -0.100206 -1.29173 -0.434188
-4.36719 -0.100487 -1.29297 -0.433613
-4.35938 -0.100768 -1.29422 -0.433037
-4.35156 -0.101049 -1.29547 -0.432459
-4.34375 -0.10133 -1.29673 -0.43188
-4.33594 -0.101612 -1.298 -0.431299
-4.32812 -0.101895 -1.29928 -0.430716
-4.32031 -0.102177 -1.30057 -0.430132
-4.3125 -0.10246 -1.30186 -0.429546
-4.30469 -0.102744 -1.30317 -0.428958
-4.29688 -0.103027 -1.30448 -0.428369
-4.28906 -0.103311 -1.3058 -0.427777
-4.28125 -0.103596 -1.30713 -0.427184
-4.27344 -0.103881 -1.30846 -0.426589
-4.26562 -0.104166 -1.30981 -0.425992
-4.25781 -0.104452 -1.31116 -0.425394
-4.25 -0.104739 -1.31253 -0.424793
-4.24219 -0.105025 -1.3139 -0.42419
-4.23438 -0.105313 -1.31528 -0.423586
-4.22656 -0.1056 -1.31666 -0.42298
-4.21875 -0.105888 -1.31806 -0.422371
-4.21094 -0.106177 -1.31947 -0.421761
-4.20312 -0.106466 -1.32088 -0.421148
-4.19531 -0.106756 -1.32231 -0.420534
-4.1875 -0.107046 -1.32374 -0.419917
-4.17969 -0.107337 -1.32518 -0.419298
-4.17188 -0.107628 -1.32663 -0.418678
-4.16406 -0.10792 -1.32809 -0.418054
-4.15625 -0.108213 -1.32956 -0.417429
-4.14844 -0.108506 -1.33103 -0.416802
-4.14062 -0.1088 -1.33252 -0.416172
-4.13281 -0.109094 -1.33402 -0.41554
-4.125 -0.109389 -1.33552 -0.414906
-4.11719 -0.109684 -1.33704 -0.41427
-4.10938 -0.10998 -1.33856 -0.413631
-4.10156 -0.110277 -1.34009 -0.41299
-4.09375 -0.110574 -1.34164 -0.412346
-4.08594 -0.110872 -1.34319 -0.4117
-4.07812 -0.111171 -1.34475 -0.411052
-4.07031 -0.111471 -1.34632 -0.410401
-4.0625 -0.111771 -1.3479 -0.409748
-4.05469 -0.112072 -1.34949 -0.409092
-4.04688 -0.112373 -1.35109 -0.408434
-4.03906 -0.112676 -1.3527 -0.407773
-4.03125 -0.112979 -1.35432 -0.40711
-4.02344 -0.113282 -1.35595 -0.406444
-4.01562 -0.113587 -1.35759 -0.405775
-4.00781 -0.113892 -1.35924 -0.405104
-4 -0.114199 -1.3609 -0.40443
-3.99219 -0.114506 -1.36257 -0.403753
-3.98438 -0.114813 -1.36425 -0.403074
-3.97656 -0.115122 -1.36594 -0.402391
-3.96875 -0.115432 -1.36764 -0.401706
-3.96094 -0.115742 -1.36935 -0.401019
-3.95312 -0.116053 -1.37107 -0.400328
-3.94531 -0.116365 -1.3728 -0.399635
-3.9375 -0.116678 -1.37455 -0.398938
-3.92969 -0.116992 -1.3763 -0.398239
-3.92188 -0.117307 -1.37806 -0.397537
-3.91406 -0.117623 -1.37984 -0.396831
-3.90625 -0.11794 -1.38162 -0.396123
-3.89844 -0.118257 -1.38342 -0.395412
-3.89062 -0.118576 -1.38523 -0.394698
-3.88281 -0.118896 -1.38704 -0.39398
-3.875 -0.119217 -1.38887 -0.39326
-3.86719 -0.119538 -1.39071 -0.392536
-3.85938 -0.119861 -1.39256 -0.391809
-3.85156 -0.120185 -1.39442 -0.391079
-3.84375 -0.12051 -1.3963 -0.390346
-3.83594 -0.120836 -1.39818 -0.38961
-3.82812 -0.121163 -1.40008 -0.38887
-3.82031 -0.121491 -1.40199 -0.388127
-3.8125 -0.12182 -1.40391 -0.38738
-3.80469 -0.122151 -1.40584 -0.386631
-3.79688 -0.122483 -1.40778 -0.385877
-3.78906 -0.122815 -1.40973 -0.385121
-3.78125 -0.123149 -1.4117 -0.384361
-3.77344 -0.123485 -1.41368 -0.383597
-3.76562 -0.123821 -1.41567 -0.38283
-3.75781 -0.124159 -1.41767 -0.382059
-3.75 -0.124497 -1.41969 -0.381285
-3.74219 -0.124838 -1.42171 -0.380507
-3.73438 -0.125179 -1.42375 -0.379726
-3.72656 -0.125522 -1.4258 -0.37894
-3.71875 -0.125866 -1.42787 -0.378151
-3.71094 -0.126211 -1.42994 -0.377359
-3.70312 -0.126558 -1.43203 -0.376562
-3.69531 -0.126906 -1.43414 -0.375762
-3.6875 -0.127256 -1.43625 -0.374957
-3.67969 -0.127607 -1.43838 -0.374149
-3.67188 -0.127959 -1.44052 -0.373337
-3.66406 -0.128313 -1.44267 -0.372521
-3.65625 -0.128668 -1.44484 -0.371702
-3.64844 -0.129025 -1.44702 -0.370878
-3.64062 -0.129384 -1.44921 -0.37005
-3.63281 -0.129743 -1.45142 -0.369217
-3.625 -0.130105 -1.45364 -0.368381
-3.61719 -0.130468 -1.45588 -0.367541
-3.60938 -0.130832 -1.45812 -0.366696
-3.60156 -0.131198 -1.46039 -0.365847
-3.59375 -0.131566 -1.46266 -0.364994
-3.58594 -0.131935 -1.46495 -0.364137
-3.57812 -0.132306 -1.46725 -0.363275
-3.57031 -0.132679 -1.46957 -0.362409
-3.5625 -0.133053 -1.4719 -0.361538
-3.55469 -0.133429 -1.47425 -0.360663
-3.54688 -0.133807 -1.47661 -0.359783
-3.53906 -0.134187 -1.47899 -0.358899
-3.53125 -0.134568 -1.48138 -0.35801
-3.52344 -0.134951 -1.48378 -0.357117
-3.51562 -0.135336 -1.4862 -0.356219
-3.50781 -0.135723 -1.48864 -0.355316
-3.5 -0.136112 -1.49109 -0.354409
-3.49219 -0.136503 -1.49355 -0.353496
-3.48438 -0.136895 -1.49604 -0.352579
-3.47656 -0.13729 -1.49853 -0.351657
-3.46875 -0.137686 -1.50104 -0.35073
-3.46094 -0.138085 -1.50357 -0.349798
-3.45312 -0.138485 -1.50612 -0.348861
-3.44531 -0.138888 -1.50867 -0.347919
-3.4375 -0.139292 -1.51125 -0.346972
-3.42969 -0.139699 -1.51384 -0.34602
-3.42188 -0.140108 -1.51645 -0.345063
-3.41406 -0.140519 -1.51907 -0.3441
-3.40625 -0.140932 -1.52171 -0.343132
-3.39844 -0.141347 -1.52437 -0.342159
-3.39062 -0.141764 -1.52705 -0.34118
-3.38281 -0.142184 -1.52974 -0.340196
-3.375 -0.142606 -1.53244 -0.339207
-3.36719 -0.14303 -1.53517 -0.338212
-3.35938 -0.143457 -1.53791 -0.337211
-3.35156 -0.143886 -1.54067 -0.336205
-3.34375 -0.144317 -1.54345 -0.335193
-3.33594 -0.144751 -1.54625 -0.334175
-3.32812 -0.145187 -1.54906 -0.333152
-3.32031 -0.145626 -1.55189 -0.332122
-3.3125 -0.146067 -1.55474 -0.331087
-3.30469 -0.14651 -1.55761 -0.330046
-3.29688 -0.146957 -1.56049 -0.328999
-3.28906 -0.147405 -1.5634 -0.327946
-3.28125 -0.147857 -1.56632 -0.326887
-3.27344 -0.148311 -1.56926 -0.325821
-3.26562 -0.148767 -1.57222 -0.324749
-3.25781 -0.149227 -1.5752 -0.323672
-3.25 -0.149689 -1.5782 -0.322587
-3.24219 -0.150154 -1.58122 -0.321497
-3.23438 -0.150622 -1.58426 -0.320399
-3.22656 -0.151092 -1.58732 -0.319296
-3.21875 -0.151565 -1.5904 -0.318186
-3.21094 -0.152042 -1.59349 -0.317069
-3.20312 -0.152521 -1.59661 -0.315945
-3.19531 -0.153003 -1.59975 -0.314815
-3.1875 -0.153488 -1.60291 -0.313678
-3.17969 -0.153977 -1.60609 -0.312534
-3.17188 -0.154468 -1.60929 -0.311382
-3.16406 -0.154962 -1.61252 -0.310224
-3.15625 -0.15546 -1.61576 -0.309059
-3.14844 -0.155961 -1.61902 -0.307887
-3.14062 -0.156465 -1.62231 -0.306707
-3.13281 -0.156972 -1.62562 -0.30552
-3.125 -0.157483 -1.62895 -0.304326
-3.11719 -0.157996 -1.6323 -0.303124
-3.10938 -0.158514 -1.63568 -0.301915
-3.10156 -0.159034 -1.63908 -0.300698
-3.09375 -0.159559 -1.6425 -0.299474
-3.08594 -0.160086 -1.64594 -0.298242
-3.07812 -0.160617 -1.64941 -0.297002
-3.07031 -0.161152 -1.6529 -0.295754
-3.0625 -0.16169 -1.65641 -0.294498
-3.05469 -0.162232 -1.65995 -0.293234
-3.04688 -0.162778 -1.66351 -0.291961
-3.03906 -0.163328 -1.6671 -0.290681
-3.03125 -0.163881 -1.67071 -0.289392
-3.02344 -0.164438 -1.67434 -0.288095
-3.01562 -0.164999 -1.678 -0.28679
-3.00781 -0.165564 -1.68169 -0.285476
-3 -0.166133 -1.68539 -0.284153
-2.99219 -0.166706 -1.68913 -0.282821
-2.98438 -0.167283 -1.69289 -0.281481
-2.97656 -0.167864 -1.69668 -0.280132
-2.96875 -0.16845 -1.70049 -0.278773
-2.96094 -0.169039 -1.70433 -0.277406
-2.95312 -0.169633 -1.7082 -0.276029
-2.94531 -0.170231 -1.71209 -0.274644
-2.9375 -0.170834 -1.71601 -0.273248
-2.92969 -0.171441 -1.71996 -0.271843
-2.92188 -0.172052 -1.72393 -0.270429
-2.91406 -0.172668 -1.72794 -0.269005
-2.90625 -0.173289 -1.73197 -0.267571
-2.89844 -0.173914 -1.73603 -0.266127
-2.89062 -0.174544 -1.74012 -0.264673
-2.88281 -0.175178 -1.74424 -0.26321
-2.875 -0.175818 -1.74838 -0.261735
-2.86719 -0.176462 -1.75256 -0.260251
-2.85938 -0.177111 -1.75676 -0.258756
-2.85156 -0.177766 -1.761 -0.25725
-2.84375 -0.178425 -1.76527 -0.255734
-2.83594 -0.179089 -1.76956 -0.254207
-2.82812 -0.179759 -1.77389 -0.252669
-2.82031 -0.180434 -1.77825 -0.25112
-2.8125 -0.181114 -1.78264 -0.24956
-2.80469 -0.181799 -1.78707 -0.247988
-2.79688 -0.18249 -1.79152 -0.246406
-2.78906 -0.183187 -1.79601 -0.244811
-2.78125 -0.183889 -1.80053 -0.243205
-2.77344 -0.184596 -1.80508 -0.241587
-2.76562 -0.185309 -1.80967 -0.239957
-2.75781 -0.186028 -1.81429 -0.238315
-2.75 -0.186753 -1.81894 -0.236661
-2.74219 -0.187484 -1.82363 -0.234995
-2.73438 -0.188221 -1.82835 -0.233315
-2.72656 -0.188964 -1.83311 -0.231624
-2.71875 -0.189713 -1.8379 -0.229919
-2.71094 -0.190468 -1.84273 -0.228202
-2.70312 -0.191229 -1.8476 -0.226471
-2.69531 -0.191997 -1.8525 -0.224727
-2.6875 -0.192771 -1.85744 -0.22297
-2.67969 -0.193552 -1.86242 -0.221199
-2.67188 -0.194339 -1.86743 -0.219415
-2.66406 -0.195133 -1.87248 -0.217617
-2.65625 -0.195934 -1.87757 -0.215804
-2.64844 -0.196742 -1.8827 -0.213977
-2.64062 -0.197556 -1.88787 -0.212136
-2.63281 -0.198378 -1.89307 -0.21028
-2.625 -0.199207 -1.89832 -0.20841
-2.61719 -0.200042 -1.90361 -0.206525
-2.60938 -0.200886 -1.90894 -0.204624
-2.60156 -0.201736 -1.91431 -0.202708
-2.59375 -0.202594 -1.91972 -0.200777
-2.58594 -0.20346 -1.92517 -0.19883
-2.57812 -0.204333 -1.93067 -0.196867
-2.57031 -0.205214 -1.93621 -0.194888
-2.5625 -0.206103 -1.94179 -0.192892
-2.55469 -0.207 -1.94742 -0.190881
-2.54688 -0.207905 -1.95309 -0.188852
-2.53906 -0.208819 -1.9588 -0.186807
-2.53125 -0.20974 -1.96456 -0.184744
-2.52344 -0.21067 -1.97037 -0.182664
-2.51562 -0.211608 -1.97622 -0.180566
-2.50781 -0.212555 -1.98212 -0.178451
-2.5 -0.213511 -1.98807 -0.176318
-2.49219 -0.214475 -1.99406 -0.174166
-2.48438 -0.215449 -2.0001 -0.171996
-2.47656 -0.216431 -2.0062 -0.169807
-2.46875 -0.217423 -2.01234 -0.167599
-2.46094 -0.218424 -2.01853 -0.165371
-2.45312 -0.219435 -2.02477 -0.163125
-2.44531 -0.220455 -2.03106 -0.160858
-2.4375 -0.221484 -2.0374 -0.158571
-2.42969 -0.222524 -2.0438 -0.156264
-2.42188 -0.223573 -2.05025 -0.153937
-2.41406 -0.224633 -2.05675 -0.151588
-2.40625 -0.225702 -2.06331 -0.149219
-2.39844 -0.226783 -2.06992 -0.146828
-2.39062 -0.227873 -2.07659 -0.144415
-2.38281 -0.228974 -2.08331 -0.14198
-2.375 -0.230086 -2.09009 -0.139523
-2.36719 -0.231209 -2.09692 -0.137043
-2.35938 -0.232343 -2.10381 -0.13454
-2.35156 -0.233488 -2.11077 -0.132014
-2.34375 -0.234645 -2.11778 -0.129464
-2.33594 -0.235813 -2.12485 -0.12689
-2.32812 -0.236993 -2.13198 -0.124292
-2.32031 -0.238184 -2.13917 -0.121669
-2.3125 -0.239388 -2.14642 -0.119021
-2.30469 -0.240603 -2.15374 -0.116348
-2.29688 -0.241832 -2.16112 -0.113649
-2.28906 -0.243072 -2.16857 -0.110924
-2.28125 -0.244326 -2.17607 -0.108173
-2.27344 -0.245592 -2.18365 -0.105394
-2.26562 -0.246871 -2.19129 -0.102589
-2.25781 -0.248163 -2.199 -0.0997551
-2.25 -0.249469 -2.20678 -0.0968935
-2.24219 -0.250789 -2.21462 -0.0940034
-2.23438 -0.252122 -2.22254 -0.0910844
-2.22656 -0.253469 -2.23052 -0.088136
-2.21875 -0.254831 -2.23858 -0.0851577
-2.21094 -0.256207 -2.24671 -0.0821491
-2.20312 -0.257597 -2.25491 -0.0791098
-2.19531 -0.259003 -2.26319 -0.0760393
-2.1875 -0.260423 -2.27154 -0.0729371
-2.17969 -0.261858 -2.27997 -0.0698027
-2.17188 -0.26331 -2.28847 -0.0666356
-2.16406 -0.264776 -2.29706 -0.0634353
-2.15625 -0.266259 -2.30572 -0.0602013
-2.14844 -0.267758 -2.31446 -0.0569331
-2.14062 -0.269273 -2.32328 -0.05363
-2.13281 -0.270805 -2.33218 -0.0502916
-2.125 -0.272354 -2.34117 -0.0469174
-2.11719 -0.27392 -2.35024 -0.0435066
-2.10938 -0.275503 -2.3594 -0.0400588
-2.10156 -0.277104 -2.36864 -0.0365733
-2.09375 -0.278723 -2.37797 -0.0330496
-2.08594 -0.28036 -2.38739 -0.029487
-2.07812 -0.282016 -2.3969 -0.0258848
-2.07031 -0.28369 -2.4065 -0.0222425
-2.0625 -0.285384 -2.41619 -0.0185593
-2.05469 -0.287097 -2.42597 -0.0148347
-2.04688 -0.288829 -2.43585 -0.0110678
-2.03906 -0.290581 -2.44582 -0.00725802
-2.03125 -0.292354 -2.45589 -0.00340461
-2.02344 -0.294147 -2.46606 0.000493156
-2.01562 -0.295961 -2.47633 0.00443604
-2.00781 -0.297796 -2.4867 0.00842479
-2 -0.299653 -2.49717 0.0124602
-1.99219 -0.301531 -2.50775 0.0165431
-1.98438 -0.303432 -2.51843 0.0206742
-1.97656 -0.305355 -2.52922 0.0248545
-1.96875 -0.307301 -2.54011 0.0290848
-1.96094 -0.309271 -2.55112 0.0333658
-1.95312 -0.311264 -2.56223 0.0376987
-1.94531 -0.313281 -2.57346 0.0420841
-1.9375 -0.315322 -2.5848 0.0465231
-1.92969 -0.317389 -2.59626 0.0510167
-1.92188 -0.31948 -2.60784 0.0555658
-1.91406 -0.321598 -2.61953 0.0601713
-1.90625 -0.323741 -2.63135 0.0648344
-1.89844 -0.325911 -2.64329 0.069556
-1.89062 -0.328107 -2.65535 0.0743373
-1.88281 -0.330331 -2.66754 0.0791792
-1.875 -0.332583 -2.67985 0.084083
-1.86719 -0.334863 -2.6923 0.0890498
-1.85938 -0.337172 -2.70488 0.0940807
-1.85156 -0.33951 -2.71759 0.0991769
-1.84375 -0.341878 -2.73043 0.10434
-1.83594 -0.344276 -2.74342 0.10957
-1.82812 -0.346705 -2.75654 0.11487
-1.82031 -0.349165 -2.7698 0.12024
-1.8125 -0.351656 -2.78321 0.125682
-1.80469 -0.354181 -2.79676 0.131196
-1.79688 -0.356738 -2.81047 0.136786
-1.78906 -0.359328 -2.82432 0.142451
-1.78125 -0.361953 -2.83832 0.148194
-1.77344 -0.364612 -2.85248 0.154015
-1.76562 -0.367307 -2.8668 0.159918
-1.75781 -0.370037 -2.88128 0.165902
-1.75 -0.372804 -2.89591 0.17197
-1.74219 -0.375608 -2.91072 0.178123
-1.73438 -0.37845 -2.92569 0.184363
-1.72656 -0.381331 -2.94083 0.190692
-1.71875 -0.38425 -2.95614 0.197112
-1.71094 -0.38721 -2.97163 0.203624
-1.70312 -0.39021 -2.98729 0.21023
-1.69531 -0.393252 -3.00314 0.216933
-1.6875 -0.396336 -3.01917 0.223734
-1.67969 -0.399462 -3.03538 0.230635
-1.67188 -0.402633 -3.05179 0.237638
-1.66406 -0.405848 -3.06839 0.244746
-1.65625 -0.409108 -3.08518 0.251961
-1.64844 -0.412415 -3.10217 0.259284
-1.64062 -0.415769 -3.11937 0.266719
-1.63281 -0.41917 -3.13677 0.274267
-1.625 -0.422621 -3.15438 0.281932
-1.61719 -0.426121 -3.1722 0.289714
-1.60938 -0.429672 -3.19024 0.297618
-1.60156 -0.433275 -3.20849 0.305646
-1.59375 -0.436931 -3.22697 0.3138
-1.58594 -0.440641 -3.24568 0.322083
-1.57812 -0.444405 -3.26462 0.330499
-1.57031 -0.448225 -3.28379 0.339049
-1.5625 -0.452103 -3.3032 0.347737
-1.55469 -0.456038 -3.32286 0.356566
-1.54688 -0.460033 -3.34276 0.36554
-1.53906 -0.464088 -3.36291 0.374661
-1.53125 -0.468205 -3.38332 0.383933
-1.52344 -0.472386 -3.40399 0.393359
-1.51562 -0.47663 -3.42492 0.402943
-1.50781 -0.48094 -3.44613 0.412689
-1.5 -0.485317 -3.4676 0.4226
-1.49219 -0.489762 -3.48936 0.43268
-1.48438 -0.494277 -3.5114 0.442934
-1.47656 -0.498863 -3.53373 0.453364
-1.46875 -0.503522 -3.55636 0.463976
-1.46094 -0.508255 -3.57928 0.474774
-1.45312 -0.513064 -3.60251 0.485762
-1.44531 -0.51795 -3.62605 0.496945
-1.4375 -0.522915 -3.64991 0.508327
-1.42969 -0.527962 -3.67409 0.519914
-1.42188 -0.53309 -3.6986 0.53171
-1.41406 -0.538303 -3.72345 0.543721
-1.40625 -0.543602 -3.74863 0.555952
-1.39844 -0.548989 -3.77416 0.568408
-1.39062 -0.554467 -3.80005 0.581096
-1.38281 -0.560036 -3.8263 0.59402
-1.375 -0.565699 -3.85292 0.607187
-1.36719 -0.571459 -3.87991 0.620604
-1.35938 -0.577316 -3.90728 0.634276
-1.35156 -0.583275 -3.93505 0.648211
-1.34375 -0.589336 -3.96321 0.662414
-1.33594 -0.595503 -3.99177 0.676894
-1.32812 -0.601777 -4.02075 0.691657
-1.32031 -0.608162 -4.05015 0.70671
-1.3125 -0.614659 -4.07998 0.722062
-1.30469 -0.621272 -4.11025 0.737721
-1.29688 -0.628003 -4.14097 0.753695
-1.28906 -0.634855 -4.17214 0.769992
-1.28125 -0.641831 -4.20378 0.786621
-1.27344 -0.648934 -4.23589 0.803591
-1.26562 -0.656167 -4.26849 0.820913
-1.25781 -0.663533 -4.30159 0.838594
-1.25 -0.671035 -4.33518 0.856646
-1.24219 -0.678677 -4.3693 0.875079
-1.23438 -0.686463 -4.40394 0.893904
-1.22656 -0.694395 -4.43912 0.913131
-1.21875 -0.702478 -4.47485 0.932773
-1.21094 -0.710715 -4.51114 0.952842
-1.20312 -0.71911 -4.54801 0.973349
-1.19531 -0.727668 -4.58546 0.994307
-1.1875 -0.736392 -4.6235 1.01573
-1.17969 -0.745287 -4.66216 1.03763
-1.17188 -0.754358 -4.70145 1.06003
-1.16406 -0.763608 -4.74137 1.08293
-1.15625 -0.773042 -4.78194 1.10635
-1.14844 -0.782667 -4.82318 1.13032
-1.14062 -0.792486 -4.86511 1.15484
-1.13281 -0.802505 -4.90773 1.17993
-1.125 -0.812729 -4.95106 1.20561
-1.11719 -0.823165 -4.99512 1.2319
-1.10938 -0.833817 -5.03993 1.25882
-1.10156 -0.844691 -5.0855 1.28638
-1.09375 -0.855795 -5.13185 1.31461
-1.08594 -0.867134 -5.179 1.34354
-1.07812 -0.878715 -5.22697 1.37317
-1.07031 -0.890545 -5.27578 1.40354
-1.0625 -0.90263 -5.32544 1.43466
-1.05469 -0.91498 -5.37597 1.46657
-1.04688 -0.9276 -5.42741 1.49929
-1.03906 -0.940499 -5.47976 1.53285
-1.03125 -0.953685 -5.53305 1.56727
-1.02344 -0.967167 -5.5873 1.60258
-1.01562 -0.980955 -5.64255 1.63883
-1.00781 -0.997903 -5.70972 1.67669
-1 -1.01447 -5.77404 1.7132
-0.992188 -1.02986 -5.83035 1.75211
-0.984375 -1.04752 -5.89086 1.7955
-0.976562 -1.06584 -5.94923 1.83932
-0.96875 -1.08542 -6.00777 1.88509
-0.960938 -1.1063 -6.06662 1.93294
-0.953125 -1.12844 -6.12564 1.98274
-0.945312 -1.15195 -6.18518 2.03487
-0.9375 -1.17686 -6.24533 2.08942
-0.929688 -1.20308 -6.30575 2.14608
-0.921875 -1.23062 -6.36654 2.20496
-0.914062 -1.25954 -6.42778 2.26616
-0.90625 -1.28984 -6.48954 2.32978
-0.898438 -1.32155 -6.55186 2.39587
-0.890625 -1.35471 -6.61482 2.46459
-0.882812 -1.3893 -6.6784 2.53587
-0.875 -1.42525 -6.74242 2.60943
-0.867188 -1.46264 -6.80707 2.68562
-0.859375 -1.50159 -6.8726 2.76482
-0.851562 -1.54212 -6.93913 2.84715
-0.84375 -1.58421 -7.00652 2.93248
-0.835938 -1.62782 -7.0747 3.02073
-0.828125 -1.67299 -7.1438 3.11203
-0.820312 -1.71978 -7.2139 3.2066
-0.8125 -1.76821 -7.28506 3.30454
-0.804688 -1.81828 -7.35727 3.40579
-0.796875 -1.87004 -7.43064 3.51061
-0.789062 -1.92354 -7.50525 3.61918
-0.78125 -1.97876 -7.58109 3.7314
-0.773438 -2.03576 -7.65826 3.84754
-0.765625 -2.09461 -7.73686 3.96785
-0.757812 -2.15527 -7.81686 4.09218
-0.75 -2.21783 -7.89838 4.22086
-0.742188 -2.28234 -7.98153 4.3542
-0.734375 -2.3488 -8.0663 4.49207
-0.726562 -2.41722 -8.15274 4.63456
-0.71875 -2.48769 -8.24097 4.78209
-0.710938 -2.56029 -8.33108 4.93495
-0.703125 -2.63507 -8.42318 5.09333
-0.695312 -2.71206 -8.51732 5.25741
-0.6875 -2.79129 -8.6135 5.42731
-0.679688 -2.87282 -8.71185 5.6033
-0.671875 -2.95673 -8.81247 5.78564
-0.664062 -3.04307 -8.9154 5.9747
-0.65625 -3.13192 -9.02071 6.17075
-0.648438 -3.22332 -9.12853 6.37392
-0.640625 -3.31735 -9.23891 6.58462
-0.632812 -3.41412 -9.3519 6.80339
-0.625 -3.51368 -9.46762 7.03047
-0.617188 -3.6161 -9.58618 7.26605
-0.609375 -3.72149 -9.70758 7.51079
-0.601562 -3.82996 -9.83187 7.76526
-0.59375 -3.94158 -9.95922 8.02958
-0.585938 -4.05643 -10.0897 8.30427
-0.578125 -4.17468 -10.2232 8.59019
-0.570312 -4.29642 -10.3599 8.88781
-0.5625 -4.42171 -10.4999 9.19731
-0.554688 -4.55071 -10.6432 9.51952
-0.546875 -4.68358 -10.7898 9.85543
-0.539062 -4.82046 -10.9396 10.2056
-0.53125 -4.96147 -11.0927 10.5708
-0.523438 -5.10676 -11.249 10.9519
-0.515625 -5.25647 -11.4086 11.3495
-0.507812 -5.4079 -11.5779 11.7665
-0.5 -5.56026 -11.7506 12.1995
-0.492188 -5.70918 -11.9192 12.6427
-0.484375 -5.84846 -12.0886 13.0968
-0.476562 -5.97855 -12.259 13.5641
-0.46875 -6.09962 -12.4302 14.0456
-0.460938 -6.21178 -12.6016 14.5424
-0.453125 -6.31533 -12.773 15.0562
-0.445312 -6.41037 -12.944 15.5878
-0.4375 -6.49721 -13.1141 16.1394
-0.429688 -6.5762 -13.2824 16.7134
-0.421875 -6.64746 -13.4484 17.3108
-0.414062 -6.71124 -13.6113 17.9337
-0.40625 -6.76778 -13.7698 18.5841
-0.398438 -6.81734 -13.923 19.2642
-0.390625 -6.86015 -14.0695 19.9763
-0.382812 -6.89643 -14.2075 20.7229
-0.375 -6.92642 -14.3355 21.5063
-0.367188 -6.95031 -14.4514 22.3291
-0.359375 -6.96827 -14.5524 23.1943
-0.351562 -6.98046 -14.636 24.1046
-0.34375 -6.98699 -14.6992 25.0628
-0.335938 -6.98792 -14.7383 26.0719
-0.328125 -6.98324 -14.7495 27.1348
-0.320312 -6.97291 -14.728 28.2545
-0.3125 -6.95673 -14.6689 29.4339
-0.304688 -6.93446 -14.5662 30.6758
-0.296875 -6.90567 -14.4136 31.9828
-0.289062 -6.86981 -14.2037 33.3572
-0.28125 -6.82615 -13.9285 34.801
-0.273438 -6.77376 -13.579 36.3158
-0.265625 -6.71129 -13.1448 37.9021
-0.257812 -6.64627 -12.6216 39.6136
-0.25 -6.58054 -12.0029 41.3962
-0.242188 -6.52744 -11.2824 43.1969
-0.234375 -6.50562 -10.4554 45.0686
-0.226562 -6.51217 -9.50761 47.0062
-0.21875 -6.54359 -8.42378 49.0022
-0.210938 -6.59577 -7.18759 51.0464
-0.203125 -6.66417 -5.7832 53.1261
-0.195312 -6.74365 -4.19477 55.2253
-0.1875 -6.82846 -2.40691 57.3244
-0.179688 -6.91236 -0.405518 59.4001
-0.171875 -6.98855 1.82137 61.4248
-0.164062 -7.0499 4.2828 63.3667
-0.15625 -7.08914 6.98403 65.1906
-0.148438 -7.09896 9.9253 66.8572
-0.140625 -7.07233 13.1007 68.3244
-0.132812 -7.00279 16.4974 69.548
-0.125 -6.88487 20.0944 70.4831
-0.117188 -6.71446 23.8623 71.0856
-0.109375 -6.48915 27.7626 71.3146
-0.101562 -6.20868 31.7487 71.1339
-0.09375 -5.87514 35.7657 70.5146
-0.0859375 -5.49321 39.7529 69.437
-0.078125 -5.0702 43.6451 67.8924
-0.0703125 -4.61589 47.3754 65.8842
-0.0625 -4.1423 50.8781 63.4285
-0.0546875 -3.66318 54.0914 60.554
-0.046875 -3.1935 56.9604 57.3007
-0.0390625 -2.74875 59.4394 53.7183
-0.03125 -2.34429 61.4935 49.8637
-0.0234375 -1.9947 63.0999 45.7988
-0.015625 -1.71357 64.2485 41.589
-0.0078125 -1.53355 65.11 37.3506
0 -1.40328 65.5282 33.0875
