# time[~Gyr] ax ay az[(km/s)^2/kpc]
-5 -0.10098 -0.977143 -0.291086
-4.99219 -0.101068 -0.97762 -0.290357
-4.98438 -0.101064 -0.977667 -0.289845
-4.97656 -0.101173 -0.978316 -0.289145
-4.96875 -0.10112 -0.978105 -0.288729
-4.96094 -0.100788 -0.976393 -0.288808
-4.95312 -0.100769 -0.976371 -0.288347
-4.94531 -0.100969 -0.977518 -0.287496
-4.9375 -0.101247 -0.979078 -0.286511
-4.92969 -0.101415 -0.980063 -0.285736
-4.92188 -0.101502 -0.980618 -0.285109
-4.91406 -0.10158 -0.981116 -0.284483
-4.90625 -0.101659 -0.981611 -0.283859
-4.89844 -0.101748 -0.982184 -0.283235
-4.89062 -0.101841 -0.98278 -0.282613
-4.88281 -0.10195 -0.983487 -0.281991
-4.875 -0.102017 -0.983902 -0.281374
-4.86719 -0.102082 -0.984302 -0.280758
-4.85938 -0.102196 -0.985048 -0.28014
-4.85156 -0.102293 -0.985667 -0.279524
-4.84375 -0.102379 -0.986214 -0.278912
-4.83594 -0.102468 -0.986782 -0.2783
-4.82812 -0.102564 -0.987393 -0.277689
-4.82031 -0.102666 -0.988049 -0.277079
-4.8125 -0.102772 -0.988736 -0.27647
-4.80469 -0.102877 -0.989411 -0.275863
-4.79688 -0.102981 -0.990081 -0.275256
-4.78906 -0.103088 -0.990773 -0.274652
-4.78125 -0.103198 -0.991482 -0.274048
-4.77344 -0.103309 -0.992196 -0.273445
-4.76562 -0.10342 -0.992916 -0.272844
-4.75781 -0.103533 -0.993646 -0.272244
-4.75 -0.103648 -0.994385 -0.271645
-4.74219 -0.103764 -0.995136 -0.271048
-4.73438 -0.103882 -0.995898 -0.270451
-4.72656 -0.104001 -0.99667 -0.269856
-4.71875 -0.104122 -0.997452 -0.269262
-4.71094 -0.104245 -0.998247 -0.268669
-4.70312 -0.104369 -0.999052 -0.268077
-4.69531 -0.104495 -0.999866 -0.267487
-4.6875 -0.104622 -1.00069 -0.266897
-4.67969 -0.104751 -1.00153 -0.266309
-4.67188 -0.104882 -1.00238 -0.265722
-4.66406 -0.105014 -1.00323 -0.265136
-4.65625 -0.105148 -1.0041 -0.264551
-4.64844 -0.105284 -1.00498 -0.263967
-4.64062 -0.105421 -1.00587 -0.263384
-4.63281 -0.10556 -1.00678 -0.262802
-4.625 -0.105701 -1.00769 -0.262221
-4.61719 -0.105844 -1.00862 -0.261641
-4.60938 -0.105988 -1.00955 -0.261062
-4.60156 -0.106133 -1.0105 -0.260485
-4.59375 -0.106281 -1.01146 -0.259908
-4.58594 -0.10643 -1.01243 -0.259332
-4.57812 -0.106581 -1.01341 -0.258757
-4.57031 -0.106734 -1.0144 -0.258184
-4.5625 -0.106888 -1.0154 -0.257611
-4.55469 -0.107044 -1.01642 -0.257039
-4.54688 -0.107202 -1.01745 -0.256468
-4.53906 -0.107361 -1.01848 -0.255898
-4.53125 -0.107522 -1.01953 -0.255329
-4.52344 -0.107685 -1.02059 -0.254761
-4.51562 -0.10785 -1.02167 -0.254194
-4.50781 -0.108017 -1.02275 -0.253627
-4.5 -0.108185 -1.02385 -0.253062
-4.49219 -0.108355 -1.02495 -0.252498
-4.48438 -0.108527 -1.02607 -0.251934
-4.47656 -0.108701 -1.0272 -0.251371
-4.46875 -0.108876 -1.02835 -0.250809
-4.46094 -0.109054 -1.0295 -0.250248
-4.45312 -0.109233 -1.03067 -0.249687
-4.44531 -0.109414 -1.03184 -0.249128
-4.4375 -0.109597 -1.03304 -0.248569
-4.42969 -0.109781 -1.03424 -0.248011
-4.42188 -0.109968 -1.03545 -0.247454
-4.41406 -0.110156 -1.03668 -0.246897
-4.40625 -0.110346 -1.03792 -0.246341
-4.39844 -0.110538 -1.03917 -0.245786
-4.39062 -0.110732 -1.04043 -0.245232
-4.38281 -0.110928 -1.04171 -0.244678
-4.375 -0.111126 -1.04299 -0.244126
-4.36719 -0.111326 -1.04429 -0.243573
-4.35938 -0.111527 -1.0456 -0.243022
-4.35156 -0.111731 -1.04693 -0.242471
-4.34375 -0.111936 -1.04827 -0.241921
-4.33594 -0.112143 -1.04962 -0.241371
-4.32812 -0.112353 -1.05098 -0.240822
-4.32031 -0.112564 -1.05235 -0.240273
-4.3125 -0.112777 -1.05374 -0.239725
-4.30469 -0.112992 -1.05514 -0.239178
-4.29688 -0.113209 -1.05655 -0.238631
-4.28906 -0.113428 -1.05798 -0.238085
-4.28125 -0.113649 -1.05942 -0.23754
-4.27344 -0.113872 -1.06087 -0.236994
-4.26562 -0.114097 -1.06233 -0.23645
-4.25781 -0.114325 -1.06381 -0.235906
-4.25 -0.114554 -1.0653 -0.235362
-4.24219 -0.114785 -1.0668 -0.234819
-4.23438 -0.115018 -1.06832 -0.234276
-4.22656 -0.115253 -1.06985 -0.233733
-4.21875 -0.115491 -1.07139 -0.233192
-4.21094 -0.11573 -1.07295 -0.23265
-4.20312 -0.115971 -1.07452 -0.232109
-4.19531 -0.116215 -1.0761 -0.231568
-4.1875 -0.116461 -1.0777 -0.231027
-4.17969 -0.116708 -1.07931 -0.230487
-4.17188 -0.116958 -1.08093 -0.229948
-4.16406 -0.11721 -1.08257 -0.229408
-4.15625 -0.117464 -1.08422 -0.228869
-4.14844 -0.117721 -1.08589 -0.22833
-4.14062 -0.117979 -1.08756 -0.227791
-4.13281 -0.11824 -1.08926 -0.227253
-4.125 -0.118503 -1.09096 -0.226714
-4.11719 -0.118768 -1.09268 -0.226176
-4.10938 -0.119035 -1.09442 -0.225638
-4.10156 -0.119304 -1.09616 -0.225101
-4.09375 -0.119576 -1.09793 -0.224563
-4.08594 -0.11985 -1.0997 -0.224026
-4.07812 -0.120126 -1.10149 -0.223488
-4.07031 -0.120404 -1.1033 -0.222951
-4.0625 -0.120685 -1.10512 -0.222414
-4.05469 -0.120967 -1.10695 -0.221877
-4.04688 -0.121253 -1.1088 -0.22134
-4.03906 -0.12154 -1.11066 -0.220803
-4.03125 -0.12183 -1.11254 -0.220266
-4.02344 -0.122122 -1.11443 -0.219729
-4.01562 -0.122416 -1.11634 -0.219192
-4.00781 -0.122713 -1.11826 -0.218654
-4 -0.123012 -1.1202 -0.218117
-3.99219 -0.123314 -1.12215 -0.21758
-3.98438 -0.123617 -1.12411 -0.217042
-3.97656 -0.123924 -1.12609 -0.216505
-3.96875 -0.124232 -1.12809 -0.215967
-3.96094 -0.124543 -1.1301 -0.215429
-3.95312 -0.124857 -1.13213 -0.214891
-3.94531 -0.125173 -1.13417 -0.214353
-3.9375 -0.125491 -1.13623 -0.213814
-3.92969 -0.125812 -1.1383 -0.213275
-3.92188 -0.126135 -1.14039 -0.212736
-3.91406 -0.126461 -1.14249 -0.212197
-3.90625 -0.126789 -1.14461 -0.211657
-3.89844 -0.12712 -1.14675 -0.211117
-3.89062 -0.127453 -1.1489 -0.210576
-3.88281 -0.127789 -1.15107 -0.210035
-3.875 -0.128127 -1.15325 -0.209494
-3.86719 -0.128468 -1.15545 -0.208952
-3.85938 -0.128812 -1.15767 -0.20841
-3.85156 -0.129158 -1.1599 -0.207867
-3.84375 -0.129507 -1.16215 -0.207324
-3.83594 -0.129858 -1.16441 -0.20678
-3.82812 -0.130212 -1.16669 -0.206235
-3.82031 -0.130569 -1.16899 -0.20569
-3.8125 -0.130928 -1.1713 -0.205145
-3.80469 -0.13129 -1.17363 -0.204598
-3.79688 -0.131655 -1.17598 -0.204051
-3.78906 -0.132023 -1.17835 -0.203504
-3.78125 -0.132393 -1.18073 -0.202955
-3.77344 -0.132766 -1.18313 -0.202406
-3.76562 -0.133141 -1.18554 -0.201856
-3.75781 -0.13352 -1.18797 -0.201306
-3.75 -0.133901 -1.19042 -0.200754
-3.74219 -0.134285 -1.19289 -0.200202
-3.73438 -0.134672 -1.19537 -0.199648
-3.72656 -0.135062 -1.19788 -0.199094
-3.71875 -0.135454 -1.2004 -0.198539
-3.71094 -0.13585 -1.20293 -0.197983
-3.70312 -0.136248 -1.20549 -0.197425
-3.69531 -0.136649 -1.20806 -0.196867
-3.6875 -0.137053 -1.21065 -0.196308
-3.67969 -0.13746 -1.21326 -0.195747
-3.67188 -0.13787 -1.21589 -0.195186
-3.66406 -0.138283 -1.21854 -0.194623
-3.65625 -0.138699 -1.2212 -0.194059
-3.64844 -0.139118 -1.22388 -0.193494
-3.64062 -0.139541 -1.22659 -0.192928
-3.63281 -0.139966 -1.22931 -0.19236
-3.625 -0.140394 -1.23205 -0.191791
-3.61719 -0.140825 -1.2348 -0.19122
-3.60938 -0.141259 -1.23758 -0.190649
-3.60156 -0.141697 -1.24038 -0.190075
-3.59375 -0.142137 -1.24319 -0.189501
-3.58594 -0.142581 -1.24603 -0.188924
-3.57812 -0.143028 -1.24888 -0.188347
-3.57031 -0.143478 -1.25175 -0.187767
-3.5625 -0.143932 -1.25465 -0.187186
-3.55469 -0.144388 -1.25756 -0.186604
-3.54688 -0.144848 -1.26049 -0.18602
-3.53906 -0.145311 -1.26344 -0.185434
-3.53125 -0.145778 -1.26642 -0.184846
-3.52344 -0.146248 -1.26941 -0.184256
-3.51562 -0.146721 -1.27242 -0.183665
-3.50781 -0.147197 -1.27546 -0.183072
-3.5 -0.147677 -1.27851 -0.182476
-3.49219 -0.14816 -1.28158 -0.181879
-3.48438 -0.148647 -1.28468 -0.18128
-3.47656 -0.149137 -1.2878 -0.180679
-3.46875 -0.149631 -1.29093 -0.180075
-3.46094 -0.150128 -1.29409 -0.17947
-3.45312 -0.150629 -1.29727 -0.178862
-3.44531 -0.151133 -1.30048 -0.178253
-3.4375 -0.151641 -1.3037 -0.17764
-3.42969 -0.152152 -1.30694 -0.177026
-3.42188 -0.152667 -1.31021 -0.176409
-3.41406 -0.153186 -1.3135 -0.17579
-3.40625 -0.153708 -1.31681 -0.175168
-3.39844 -0.154234 -1.32014 -0.174544
-3.39062 -0.154764 -1.3235 -0.173918
-3.38281 -0.155297 -1.32687 -0.173288
-3.375 -0.155835 -1.33028 -0.172656
-3.36719 -0.156376 -1.3337 -0.172022
-3.35938 -0.156921 -1.33714 -0.171384
-3.35156 -0.157469 -1.34061 -0.170744
-3.34375 -0.158022 -1.34411 -0.170101
-3.33594 -0.158578 -1.34762 -0.169455
-3.32812 -0.159139 -1.35116 -0.168807
-3.32031 -0.159703 -1.35472 -0.168155
-3.3125 -0.160272 -1.35831 -0.1675
-3.30469 -0.160844 -1.36192 -0.166842
-3.29688 -0.16142 -1.36555 -0.166181
-3.28906 -0.162001 -1.36921 -0.165516
-3.28125 -0.162585 -1.3729 -0.164849
-3.27344 -0.163174 -1.37661 -0.164177
-3.26562 -0.163767 -1.38034 -0.163503
-3.25781 -0.164364 -1.3841 -0.162825
-3.25 -0.164966 -1.38788 -0.162144
-3.24219 -0.165571 -1.39169 -0.161459
-3.23438 -0.166181 -1.39552 -0.16077
-3.22656 -0.166795 -1.39938 -0.160078
-3.21875 -0.167414 -1.40326 -0.159381
-3.21094 -0.168037 -1.40717 -0.158681
-3.20312 -0.168664 -1.41111 -0.157977
-3.19531 -0.169296 -1.41507 -0.15727
-3.1875 -0.169932 -1.41906 -0.156558
-3.17969 -0.170573 -1.42308 -0.155842
-3.17188 -0.171218 -1.42712 -0.155121
-3.16406 -0.171868 -1.43119 -0.154397
-3.15625 -0.172523 -1.43529 -0.153668
-3.14844 -0.173182 -1.43941 -0.152935
-3.14062 -0.173846 -1.44357 -0.152197
-3.13281 -0.174515 -1.44775 -0.151455
-3.125 -0.175188 -1.45196 -0.150709
-3.11719 -0.175866 -1.45619 -0.149957
-3.10938 -0.176549 -1.46046 -0.149201
-3.10156 -0.177237 -1.46475 -0.14844
-3.09375 -0.17793 -1.46907 -0.147674
-3.08594 -0.178628 -1.47342 -0.146903
-3.07812 -0.179331 -1.4778 -0.146127
-3.07031 -0.180039 -1.48221 -0.145345
-3.0625 -0.180752 -1.48665 -0.144559
-3.05469 -0.18147 -1.49112 -0.143767
-3.04688 -0.182193 -1.49562 -0.14297
-3.03906 -0.182921 -1.50015 -0.142167
-3.03125 -0.183655 -1.50471 -0.141359
-3.02344 -0.184394 -1.5093 -0.140545
-3.01562 -0.185138 -1.51392 -0.139725
-3.00781 -0.185888 -1.51858 -0.138899
-3 -0.186643 -1.52326 -0.138067
-2.99219 -0.187404 -1.52798 -0.13723
-2.98438 -0.18817 -1.53273 -0.136386
-2.97656 -0.188942 -1.53751 -0.135535
-2.96875 -0.189719 -1.54232 -0.134679
-2.96094 -0.190502 -1.54717 -0.133816
-2.95312 -0.191291 -1.55205 -0.132946
-2.94531 -0.192085 -1.55696 -0.13207
-2.9375 -0.192885 -1.5619 -0.131187
-2.92969 -0.193691 -1.56688 -0.130297
-2.92188 -0.194503 -1.5719 -0.1294
-2.91406 -0.195321 -1.57694 -0.128497
-2.90625 -0.196145 -1.58203 -0.127585
-2.89844 -0.196975 -1.58714 -0.126667
-2.89062 -0.197812 -1.5923 -0.125741
-2.88281 -0.198654 -1.59748 -0.124807
-2.875 -0.199502 -1.60271 -0.123866
-2.86719 -0.200357 -1.60797 -0.122917
-2.85938 -0.201218 -1.61326 -0.121961
-2.85156 -0.202086 -1.61859 -0.120996
-2.84375 -0.20296 -1.62396 -0.120023
-2.83594 -0.203841 -1.62937 -0.119041
-2.82812 -0.204728 -1.63481 -0.118051
-2.82031 -0.205621 -1.64029 -0.117053
-2.8125 -0.206522 -1.64581 -0.116046
-2.80469 -0.207429 -1.65137 -0.11503
-2.79688 -0.208343 -1.65697 -0.114005
-2.78906 -0.209264 -1.6626 -0.112971
-2.78125 -0.210192 -1.66828 -0.111928
-2.77344 -0.211126 -1.67399 -0.110876
-2.76562 -0.212068 -1.67975 -0.109814
-2.75781 -0.213017 -1.68554 -0.108742
-2.75 -0.213974 -1.69138 -0.10766
-2.74219 -0.214937 -1.69726 -0.106568
-2.73438 -0.215908 -1.70318 -0.105467
-2.72656 -0.216886 -1.70914 -0.104355
-2.71875 -0.217872 -1.71514 -0.103232
-2.71094 -0.218865 -1.72119 -0.102099
-2.70312 -0.219866 -1.72727 -0.100955
-2.69531 -0.220875 -1.73341 -0.0997999
-2.6875 -0.221892 -1.73958 -0.0986338
-2.67969 -0.222916 -1.7458 -0.0974563
-2.67188 -0.223948 -1.75207 -0.0962674
-2.66406 -0.224988 -1.75838 -0.0950668
-2.65625 -0.226037 -1.76473 -0.0938543
-2.64844 -0.227093 -1.77113 -0.0926298
-2.64062 -0.228158 -1.77758 -0.091393
-2.63281 -0.229231 -1.78407 -0.0901439
-2.625 -0.230313 -1.79061 -0.0888821
-2.61719 -0.231403 -1.7972 -0.0876074
-2.60938 -0.232502 -1.80383 -0.0863198
-2.60156 -0.233609 -1.81052 -0.0850189
-2.59375 -0.234725 -1.81725 -0.0837046
-2.58594 -0.23585 -1.82403 -0.0823766
-2.57812 -0.236984 -1.83087 -0.0810348
-2.57031 -0.238127 -1.83775 -0.0796788
-2.5625 -0.239279 -1.84468 -0.0783086
-2.55469 -0.240441 -1.85167 -0.0769238
-2.54688 -0.241611 -1.8587 -0.0755242
-2.53906 -0.242791 -1.86579 -0.0741097
-2.53125 -0.243981 -1.87293 -0.0726799
-2.52344 -0.24518 -1.88013 -0.0712346
-2.51562 -0.246389 -1.88737 -0.0697735
-2.50781 -0.247608 -1.89468 -0.0682965
-2.5 -0.248837 -1.90203 -0.0668032
-2.49219 -0.250076 -1.90944 -0.0652935
-2.48438 -0.251325 -1.91691 -0.0637669
-2.47656 -0.252585 -1.92444 -0.0622233
-2.46875 -0.253854 -1.93202 -0.0606624
-2.46094 -0.255135 -1.93966 -0.0590839
-2.45312 -0.256426 -1.94736 -0.0574876
-2.44531 -0.257727 -1.95511 -0.0558731
-2.4375 -0.25904 -1.96293 -0.0542401
-2.42969 -0.260363 -1.9708 -0.0525883
-2.42188 -0.261698 -1.97874 -0.0509175
-2.41406 -0.263043 -1.98674 -0.0492273
-2.40625 -0.264401 -1.9948 -0.0475174
-2.39844 -0.265769 -2.00292 -0.0457875
-2.39062 -0.267149 -2.0111 -0.0440373
-2.38281 -0.268541 -2.01935 -0.0422664
-2.375 -0.269945 -2.02766 -0.0404745
-2.36719 -0.271361 -2.03604 -0.0386612
-2.35938 -0.272789 -2.04449 -0.0368262
-2.35156 -0.274229 -2.053 -0.0349692
-2.34375 -0.275682 -2.06158 -0.0330897
-2.33594 -0.277148 -2.07022 -0.0311874
-2.32812 -0.278626 -2.07894 -0.0292619
-2.32031 -0.280117 -2.08772 -0.0273129
-2.3125 -0.281621 -2.09658 -0.0253399
-2.30469 -0.283138 -2.1055 -0.0233425
-2.29688 -0.284669 -2.1145 -0.0213204
-2.28906 -0.286213 -2.12357 -0.0192731
-2.28125 -0.28777 -2.13271 -0.0172002
-2.27344 -0.289342 -2.14193 -0.0151012
-2.26562 -0.290928 -2.15122 -0.0129757
-2.25781 -0.292528 -2.16059 -0.0108234
-2.25 -0.294142 -2.17004 -0.00864361
-2.24219 -0.29577 -2.17956 -0.006436
-2.23438 -0.297414 -2.18916 -0.00420006
-2.22656 -0.299072 -2.19884 -0.00193532
-2.21875 -0.300746 -2.20861 0.000358724
-2.21094 -0.302434 -2.21845 0.00268257
-2.20312 -0.304139 -2.22837 0.00503674
-2.19531 -0.305858 -2.23838 0.00742174
-2.1875 -0.307594 -2.24847 0.00983812
-2.17969 -0.309346 -2.25865 0.0122864
-2.17188 -0.311114 -2.26892 0.0147672
-2.16406 -0.312899 -2.27927 0.017281
-2.15625 -0.3147 -2.2897 0.0198284
-2.14844 -0.316518 -2.30023 0.02241
-2.14062 -0.318353 -2.31085 0.0250264
-2.13281 -0.320206 -2.32156 0.0276782
-2.125 -0.322076 -2.33236 0.0303661
-2.11719 -0.323964 -2.34326 0.0330906
-2.10938 -0.32587 -2.35425 0.0358525
-2.10156 -0.327795 -2.36534 0.0386523
-2.09375 -0.329738 -2.37652 0.0414909
-2.08594 -0.331699 -2.3878 0.0443687
-2.07812 -0.33368 -2.39918 0.0472867
-2.07031 -0.33568 -2.41067 0.0502454
-2.0625 -0.3377 -2.42225 0.0532457
-2.05469 -0.339739 -2.43394 0.0562882
-2.04688 -0.341799 -2.44573 0.0593738
-2.03906 -0.343879 -2.45763 0.0625032
-2.03125 -0.345979 -2.46963 0.0656772
-2.02344 -0.348101 -2.48175 0.0688967
-2.01562 -0.350244 -2.49397 0.0721624
-2.00781 -0.352408 -2.50631 0.0754753
-2 -0.354595 -2.51876 0.0788362
-1.99219 -0.356803 -2.53132 0.0822459
-1.98438 -0.359034 -2.544 0.0857055
-1.97656 -0.361287 -2.55679 0.0892158
-1.96875 -0.363564 -2.56971 0.0927778
-1.96094 -0.365865 -2.58274 0.0963924
-1.95312 -0.368189 -2.5959 0.100061
-1.94531 -0.370537 -2.60918 0.103784
-1.9375 -0.37291 -2.62259 0.107562
-1.92969 -0.375307 -2.63613 0.111398
-1.92188 -0.37773 -2.64979 0.115291
-1.91406 -0.380178 -2.66358 0.119243
-1.90625 -0.382653 -2.67751 0.123255
-1.89844 -0.385154 -2.69157 0.127329
-1.89062 -0.387681 -2.70577 0.131464
-1.88281 -0.390236 -2.7201 0.135664
-1.875 -0.392818 -2.73457 0.139928
-1.86719 -0.395429 -2.74919 0.144259
-1.85938 -0.398067 -2.76395 0.148657
-1.85156 -0.400735 -2.77886 0.153124
-1.84375 -0.403432 -2.79391 0.15766
-1.83594 -0.406159 -2.80912 0.162269
-1.82812 -0.408916 -2.82447 0.16695
-1.82031 -0.411704 -2.83998 0.171706
-1.8125 -0.414523 -2.85565 0.176538
-1.80469 -0.417373 -2.87148 0.181447
-1.79688 -0.420256 -2.88746 0.186435
-1.78906 -0.423172 -2.90362 0.191503
-1.78125 -0.42612 -2.91993 0.196654
-1.77344 -0.429103 -2.93642 0.201889
-1.76562 -0.43212 -2.95308 0.20721
-1.75781 -0.435172 -2.96991 0.212617
-1.75 -0.438259 -2.98691 0.218115
-1.74219 -0.441383 -3.0041 0.223703
-1.73438 -0.444543 -3.02147 0.229384
-1.72656 -0.44774 -3.03902 0.23516
-1.71875 -0.450975 -3.05675 0.241033
-1.71094 -0.454249 -3.07468 0.247005
-1.70312 -0.457561 -3.0928 0.253078
-1.69531 -0.460914 -3.11112 0.259254
-1.6875 -0.464307 -3.12964 0.265536
-1.67969 -0.467742 -3.14835 0.271925
-1.67188 -0.471218 -3.16728 0.278424
-1.66406 -0.474737 -3.18641 0.285036
-1.65625 -0.478299 -3.20575 0.291763
-1.64844 -0.481905 -3.22531 0.298606
-1.64062 -0.485557 -3.24509 0.30557
-1.63281 -0.489254 -3.26509 0.312657
-1.625 -0.492997 -3.28532 0.319868
-1.61719 -0.496788 -3.30577 0.327208
-1.60938 -0.500627 -3.32646 0.334678
-1.60156 -0.504515 -3.34738 0.342283
-1.59375 -0.508453 -3.36855 0.350024
-1.58594 -0.512442 -3.38996 0.357905
-1.57812 -0.516483 -3.41162 0.36593
-1.57031 -0.520577 -3.43354 0.3741
-1.5625 -0.524724 -3.45571 0.382421
-1.55469 -0.528926 -3.47814 0.390895
-1.54688 -0.533183 -3.50084 0.399525
-1.53906 -0.537498 -3.52381 0.408316
-1.53125 -0.54187 -3.54705 0.417271
-1.52344 -0.546301 -3.57058 0.426394
-1.51562 -0.550793 -3.59439 0.435689
-1.50781 -0.555345 -3.61849 0.44516
-1.5 -0.55996 -3.64289 0.454811
-1.49219 -0.564639 -3.66759 0.464647
-1.48438 -0.569382 -3.69259 0.474672
-1.47656 -0.574192 -3.7179 0.484891
-1.46875 -0.579069 -3.74353 0.495308
-1.46094 -0.584015 -3.76949 0.505928
-1.45312 -0.589031 -3.79577 0.516756
-1.44531 -0.594118 -3.82238 0.527797
-1.4375 -0.599279 -3.84934 0.539057
-1.42969 -0.604514 -3.87664 0.550541
-1.42188 -0.609825 -3.9043 0.562254
-1.41406 -0.615213 -3.93232 0.574203
-1.40625 -0.620681 -3.9607 0.586393
-1.39844 -0.626229 -3.98945 0.598831
-1.39062 -0.63186 -4.01859 0.611522
-1.38281 -0.637576 -4.04811 0.624474
-1.375 -0.643377 -4.07803 0.637693
-1.36719 -0.649266 -4.10835 0.651186
-1.35938 -0.655244 -4.13908 0.66496
-1.35156 -0.661315 -4.17023 0.679023
-1.34375 -0.667478 -4.2018 0.693381
-1.33594 -0.673738 -4.23381 0.708044
-1.32812 -0.680095 -4.26626 0.72302
-1.32031 -0.686552 -4.29916 0.738316
-1.3125 -0.693111 -4.33253 0.753941
-1.30469 -0.699774 -4.36636 0.769904
-1.29688 -0.706544 -4.40068 0.786215
-1.28906 -0.713423 -4.43548 0.802883
-1.28125 -0.720413 -4.47078 0.819918
-1.27344 -0.727517 -4.50659 0.83733
-1.26562 -0.734739 -4.54292 0.85513
-1.25781 -0.742079 -4.57978 0.873328
-1.25 -0.749541 -4.61719 0.891936
-1.24219 -0.757129 -4.65514 0.910967
-1.23438 -0.764845 -4.69366 0.930432
-1.22656 -0.772691 -4.73276 0.950342
-1.21875 -0.78067 -4.77244 0.970709
-1.21094 -0.788788 -4.81272 0.991552
-1.20312 -0.797046 -4.85362 1.01288
-1.19531 -0.805448 -4.89515 1.03471
-1.1875 -0.813996 -4.93731 1.05705
-1.17969 -0.822696 -4.98013 1.07993
-1.17188 -0.831552 -5.02362 1.10335
-1.16406 -0.840565 -5.06779 1.12734
-1.15625 -0.84974 -5.11266 1.1519
-1.14844 -0.859082 -5.15824 1.17707
-1.14062 -0.868596 -5.20456 1.20286
-1.13281 -0.878283 -5.25162 1.22927
-1.125 -0.88815 -5.29944 1.25635
-1.11719 -0.898202 -5.34804 1.2841
-1.10938 -0.908444 -5.39744 1.31256
-1.10156 -0.918878 -5.44766 1.34173
-1.09375 -0.929511 -5.49871 1.37164
-1.08594 -0.940349 -5.55062 1.40232
-1.07812 -0.951398 -5.6034 1.43381
-1.07031 -0.96266 -5.65707 1.4661
-1.0625 -0.974143 -5.71166 1.49923
-1.05469 -0.985853 -5.76719 1.53324
-1.04688 -0.997797 -5.82368 1.56817
-1.03906 -1.00998 -5.88115 1.60402
-1.03125 -1.02241 -5.93963 1.64084
-1.02344 -1.03509 -5.99913 1.67865
-1.01562 -1.04804 -6.0597 1.71751
-1.00781 -1.08114 -6.1142 1.75464
-1 -1.11433 -6.1652 1.79033
-0.992188 -1.12919 -6.22574 1.8326
-0.984375 -1.14515 -6.29061 1.88057
-0.976562 -1.16059 -6.35326 1.92978
-0.96875 -1.1761 -6.41609 1.98192
-0.960938 -1.19173 -6.47921 2.03712
-0.953125 -1.20743 -6.54249 2.09524
-0.945312 -1.22332 -6.60632 2.1567
-0.9375 -1.23943 -6.67075 2.2216
-0.929688 -1.25566 -6.73543 2.28957
-0.921875 -1.27203 -6.80048 2.36077
-0.914062 -1.28859 -6.86599 2.43531
-0.90625 -1.30535 -6.93201 2.51326
-0.898438 -1.32233 -6.9986 2.59473
-0.890625 -1.33957 -7.06583 2.67985
-0.882812 -1.35706 -7.13366 2.76856
-0.875 -1.37471 -7.20192 2.86054
-0.867188 -1.39261 -7.27082 2.95618
-0.859375 -1.41088 -7.34059 3.05591
-0.851562 -1.42955 -7.41136 3.15986
-0.84375 -1.44857 -7.483 3.2679
-0.835938 -1.46791 -7.55541 3.3799
-0.828125 -1.48763 -7.62874 3.49603
-0.820312 -1.50777 -7.70306 3.61652
-0.8125 -1.52835 -7.77843 3.7415
-0.804688 -1.54937 -7.85484 3.87088
-0.796875 -1.57087 -7.9324 4.00494
-0.789062 -1.59292 -8.01118 4.14392
-0.78125 -1.61548 -8.09119 4.28766
-0.773438 -1.63861 -8.1725 4.43647
-0.765625 -1.66238 -8.25521 4.59064
-0.757812 -1.68675 -8.33933 4.75001
-0.75 -1.71179 -8.42492 4.91487
-0.742188 -1.73757 -8.51209 5.08559
-0.734375 -1.76408 -8.60088 5.26213
-0.726562 -1.79134 -8.69132 5.44452
-0.71875 -1.81942 -8.78348 5.63318
-0.710938 -1.84838 -8.87748 5.82843
-0.703125 -1.87829 -8.97341 6.0305
-0.695312 -1.90916 -9.07131 6.23956
-0.6875 -1.94103 -9.17118 6.45577
-0.679688 -1.97395 -9.27315 6.67941
-0.671875 -2.00799 -9.3773 6.91077
-0.664062 -2.0432 -9.48366 7.15023
-0.65625 -2.07964 -9.5923 7.39808
-0.648438 -2.11735 -9.70333 7.65447
-0.640625 -2.15642 -9.81678 7.91988
-0.632812 -2.19691 -9.93269 8.19483
-0.625 -2.2389 -10.0512 8.47956
-0.617188 -2.28243 -10.1723 8.77435
-0.609375 -2.32761 -10.2961 9.0799
-0.601562 -2.37453 -10.4225 9.39673
-0.59375 -2.42323 -10.5518 9.725
-0.585938 -2.47382 -10.6838 10.0654
-0.578125 -2.5264 -10.8186 10.4187
-0.570312 -2.58106 -10.9563 10.7853
-0.5625 -2.63787 -11.0969 11.1656
-0.554688 -2.69697 -11.2403 11.5607
-0.546875 -2.75848 -11.3864 11.9713
-0.539062 -2.82246 -11.5355 12.3978
-0.53125 -2.88904 -11.6875 12.8408
-0.523438 -2.95836 -11.842 13.3017
-0.515625 -3.03057 -11.9988 13.7818
-0.507812 -3.11235 -12.1602 14.2811
-0.5 -3.20029 -12.3237 14.7965
-0.492188 -3.28943 -12.4848 15.3209
-0.484375 -3.38509 -12.644 15.8507
-0.476562 -3.48771 -12.8012 16.3886
-0.46875 -3.59745 -12.9561 16.9356
-0.460938 -3.71437 -13.1082 17.4926
-0.453125 -3.83873 -13.2567 18.0616
-0.445312 -3.97063 -13.4016 18.6434
-0.4375 -4.11028 -13.542 19.2396
-0.429688 -4.25798 -13.6767 19.8531
-0.421875 -4.41386 -13.805 20.4852
-0.414062 -4.57804 -13.9259 21.1373
-0.40625 -4.75074 -14.0381 21.8117
-0.398438 -4.93212 -14.1403 22.5105
-0.390625 -5.12233 -14.2306 23.2358
-0.382812 -5.32151 -14.3073 23.9899
-0.375 -5.52978 -14.3684 24.7751
-0.367188 -5.74726 -14.4115 25.5938
-0.359375 -5.97398 -14.434 26.4485
-0.351562 -6.20994 -14.4321 27.3418
-0.34375 -6.45513 -14.4029 28.2762
-0.335938 -6.70945 -14.3424 29.2541
-0.328125 -6.97274 -14.2464 30.278
-0.320312 -7.24475 -14.1098 31.3503
-0.3125 -7.52513 -13.9273 32.4731
-0.304688 -7.81338 -13.6926 33.6484
-0.296875 -8.10891 -13.3992 34.8779
-0.289062 -8.41092 -13.0395 36.163
-0.28125 -8.71846 -12.6053 37.5043
-0.273438 -9.03036 -12.0876 38.9021
-0.265625 -9.34516 -11.4764 40.3559
-0.257812 -9.68625 -10.7705 41.9156
-0.25 -10.0266 -9.96645 43.5281
-0.242188 -10.3308 -9.06321 45.1477
-0.234375 -10.6131 -8.06091 46.8298
-0.226562 -10.8707 -6.94632 48.5674
-0.21875 -11.1004 -5.70703 50.3516
-0.210938 -11.2982 -4.32871 52.1706
-0.203125 -11.46 -2.79752 54.0097
-0.195312 -11.5813 -1.10157 55.8525
-0.1875 -11.6571 0.771035 57.6786
-0.179688 -11.6819 2.83035 59.4645
-0.171875 -11.6503 5.08419 61.1839
-0.164062 -11.5564 7.53691 62.8063
-0.15625 -11.3944 10.189 64.2986
-0.148438 -11.1589 13.0366 65.626
-0.140625 -10.8446 16.0702 66.7513
-0.132812 -10.447 19.2737 67.6365
-0.125 -9.96263 22.6247 68.2439
-0.117188 -9.38908 26.0933 68.5379
-0.109375 -8.72541 29.6431 68.4854
-0.101562 -7.97255 33.2305 68.0593
-0.09375 -7.13332 36.8065 67.2392
-0.0859375 -6.2123 40.318 66.0121
-0.078125 -5.21619 43.7087 64.3746
-0.0703125 -4.15337 46.9224 62.3333
-0.0625 -3.03388 49.9038 59.9051
-0.0546875 -1.86899 52.6017 57.1172
-0.046875 -0.67069 54.971 54.0054
-0.0390625 0.548665 56.9737 50.6131
-0.03125 1.77692 58.5814 46.9897
-0.0234375 3.00254 59.7752 43.188
-0.015625 4.21479 60.5462 39.2639
-0.0078125 5.33391 60.9615 35.3194
0 6.41831 60.9891 31.3747
